timestamp,phone_accel_x,phone_accel_y,phone_accel_z,phone_gyro_x,phone_gyro_y,phone_gyro_z,watch_accel_x,watch_accel_y,watch_accel_z,watch_gyro_x,watch_gyro_y,watch_gyro_z
1764808542.01223,0.040753742931783195,-0.10912088445425033,0.10597148051261901,0.05180647224187851,0.1830727905035019,0.06919167190790176,,,,,,
1764808542.019746,,,,,,,-0.006868302822113037,-0.017386555671691895,-0.0023937243968248367,0.3098544478416443,0.09291048347949982,-0.024541206657886505
1764808542.022282,0.03679536069482565,-0.06383154391944408,0.06664733199253678,0.048951033502817154,0.16940732300281525,0.05893291160464287,,,,,,
1764808542.029776,,,,,,,-0.005984902381896973,-0.018333762884140015,0.0012682676315307617,0.26815012097358704,0.09388520568609238,-0.015557298436760902
1764808542.032334,0.017127660411596298,-0.016991466811299323,0.054911301491409534,0.04948067665100098,0.15083590149879456,0.05209780111908913,,,,,,
1764808542.039807,,,,,,,-0.0013385415077209473,-0.02421504259109497,0.00468885712325573,0.22556787729263306,0.08017817884683609,-0.007465283386409283
1764808542.042386,-0.006334755979478359,-0.036947628647089004,0.06634791065454483,0.04794642701745033,0.12998735904693604,0.04436611384153366,,,,,,
1764808542.049837,,,,,,,0.003516554832458496,-0.025537461042404175,0.0063703060150146484,0.18452216684818268,0.05757726728916168,-0.011368678882718086
1764808542.052438,-0.005632160668075085,-0.034954993525147436,0.06052738780751824,0.04585563391447067,0.1080298200249672,0.03923705965280533,,,,,,
1764808542.059867,,,,,,,0.0071297287940979,-0.018026649951934814,0.003997921943664551,0.14426352083683014,0.040501877665519714,-0.006792103406041861
1764808542.062491,-0.025939912420511243,-0.051715574190020555,0.11307459051609038,0.03764430806040764,0.08330236375331879,0.035248979926109314,,,,,,
1764808542.069897,,,,,,,0.004925191402435303,-0.023183763027191162,0.001083848997950554,0.09123598784208298,0.03137096390128136,-0.011300833895802498
1764808542.072543,-0.06294891586601734,-0.07607201681137085,0.12488324786201119,0.027490636333823204,0.05578933283686638,0.03305201232433319,,,,,,
1764808542.079927,,,,,,,-0.0004557371139526367,-0.02782854437828064,-0.0012053251266479492,0.046695396304130554,0.025740772485733032,-0.0203549824655056
1764808542.082595,-0.06555763705968856,-0.055987260159850116,0.15597835108861327,0.013641664758324623,0.031027527526021004,0.025980519130825996,,,,,,
1764808542.089957,,,,,,,0.0042144060134887695,-0.018186897039413452,-0.004658101126551628,0.03320275992155075,0.014917153865098953,-0.018168527632951736
1764808542.092647,-0.06193710847496986,-0.007833762365579604,0.11776333285421133,0.0030609173700213432,0.012802558951079845,0.019516315311193466,,,,,,
1764808542.099987,,,,,,,0.009283661842346191,-0.008118629455566406,-0.003818390890955925,0.024725409224629402,0.005792365409433842,-0.018329381942749023
1764808542.102699,-0.08461538875102996,0.02653787831366062,0.08594576057195663,-0.0012518055737018585,0.005110283847898245,0.016094153746962547,,,,,,
1764808542.110018,,,,,,,0.00698620080947876,-0.013844311237335205,-0.0001696329563856125,0.0014448531437665224,-0.004967604763805866,-0.02235368639230728
1764808542.112751,-0.08245821071714163,0.007401216167211532,0.07979659029245376,-0.0008363435044884682,0.008158696815371513,0.01288549043238163,,,,,,
1764808542.120048,,,,,,,0.0049073100090026855,-0.019296258687973022,0.004098296165466309,-0.029964055866003036,-0.008290963247418404,-0.014348889701068401
1764808542.122803,-0.07613339160978794,0.0045101709008216855,0.10952186647057532,-0.004435339476913214,0.003386045340448618,0.009668391197919846,,,,,,
1764808542.130078,,,,,,,0.004589200019836426,-0.012560009956359863,0.005886554718017578,-0.03454655781388283,-0.006182271987199783,-0.0007654360961169004
1764808542.132855,-0.09411562302410602,0.017269699230790136,0.08735577350035309,-0.006383489817380905,-0.0013831546530127525,0.007515384815633297,,,,,,
1764808542.140108,,,,,,,0.000879824161529541,-0.006008803844451904,0.004431009292602539,-0.01637759804725647,-0.0033950076904147863,-0.0034999700728803873
1764808542.142908,-0.11028262171000242,0.037787002080678936,0.07714402995705603,-0.00617150217294693,-0.0027597425505518913,-0.0008115210803225636,,,,,,
1764808542.150138,,,,,,,0.0013408064842224121,-0.0006901919841766357,0.003218056634068489,0.0037543021608144045,0.0006657801568508148,0.00726026576012373
1764808542.15296,-0.10060147791206836,0.055414428707957264,0.05130933147668838,-0.0037848777137696743,-0.0017114911461248994,-0.005503783002495766,,,,,,
1764808542.160168,,,,,,,0.005861401557922363,-0.0023370981216430664,0.003403306007385254,0.0220619086176157,-0.0018415858503431082,0.013657777570188046
1764808542.163012,-0.09706278239190579,0.023145313265919683,0.060205608507245774,-0.0023955064825713634,5.445093847811222e-05,-0.011144890449941158,,,,,,
1764808542.170198,,,,,,,0.0023296475410461426,-0.0077423155307769775,0.005063891410827637,0.03215688839554787,0.002213875763118267,0.011149613186717033
1764808542.173064,-0.10243629212379456,-0.028234745359420773,0.1004288978241384,-0.0032685082405805588,0.0039290329441428185,-0.01419749204069376,,,,,,
1764808542.180229,,,,,,,-0.0029641389846801758,-0.004472643136978149,0.007383944466710091,0.037339046597480774,0.008893616497516632,0.014922380447387695
1764808542.183116,-0.11393968291282654,-0.0393657957047224,0.09615838089808822,-0.006113563198596239,0.00664812047034502,-0.014093095436692238,,,,,,
1764808542.190259,,,,,,,-0.006128907203674316,-0.003569662570953369,0.007577540352940559,0.029474202543497086,0.015060432255268097,0.02186897024512291
1764808542.193168,-0.18219518075436353,-0.02422200258672237,0.061127984049171205,-0.005431160796433687,0.011826606467366219,-0.015262722037732601,,,,,,
1764808542.200289,,,,,,,-0.00553363561630249,-0.004350543022155762,0.00836801715195179,0.01821397989988327,0.01922508329153061,0.021083537489175797
1764808542.20322,-0.1902218353435397,-0.009379822763800621,0.030434885752201078,-0.004865505266934633,0.021020904183387756,-0.014457914978265762,,,,,,
1764808542.210319,,,,,,,-0.003384232521057129,-0.00340348482131958,0.00684356689453125,0.0207463800907135,0.011306174099445343,0.02296506054699421
1764808542.213273,-0.18205577228367328,-0.03169102329313755,0.013984101688861847,-0.0038359309546649456,0.036238789558410645,-0.01593845710158348,,,,,,
1764808542.220349,,,,,,,-0.0020795464515686035,-0.004215121269226074,0.006104230880737305,0.024387286975979805,0.009376980364322662,0.01695537008345127
1764808542.223325,-0.17407675622850655,-0.06438508614897727,0.04755436285734176,-0.00808633677661419,0.050273917615413666,-0.01906048133969307,,,,,,
1764808542.230379,,,,,,,-0.005896270275115967,0.0012249648571014404,0.007682202383875847,0.022221870720386505,0.012472106143832207,0.018110649660229683
1764808542.233377,-0.13063888877928256,-0.04493278218209743,0.037542671930789945,-0.010022975504398346,0.053831472992897034,-0.02278011292219162,,,,,,
1764808542.240409,,,,,,,-0.006842076778411865,0.0031793415546417236,0.006765246391296387,0.029992103576660156,0.008179889060556889,0.029046054929494858
1764808542.243429,-0.0854763894945383,-0.03224456552267074,0.014409487494081257,-0.004771487321704626,0.05403973162174225,-0.02084692381322384,,,,,,
1764808542.250439,,,,,,,-0.005883276462554932,-0.0017530322074890137,0.0041379909962415695,0.038177330046892166,0.009434504434466362,0.023984184488654137
1764808542.253481,-0.04571925638467073,-0.0359977805763483,0.019230916301161048,-0.003595754038542509,0.04993371292948723,-0.019687047228217125,,,,,,
1764808542.26047,,,,,,,-0.00939112901687622,0.0008540749549865723,0.006228804588317871,0.034775663167238235,0.013734177686274052,0.02883506566286087
1764808542.263533,-0.044648120021820066,-0.04694412200450897,0.04662380400896072,-0.0023464648984372616,0.04181985929608345,-0.021953929215669632,,,,,,
1764808542.270499,,,,,,,-0.00890207290649414,0.00019535422325134277,0.008280277252197266,0.0322834774851799,0.012752270326018333,0.03432890400290489
1764808542.273585,-0.034137539662420745,-0.0381546663492918,0.0038590135157108305,8.616270497441292e-05,0.037097033113241196,-0.02467147633433342,,,,,,
1764808542.28053,,,,,,,-0.006973624229431152,-0.0030604302883148193,0.00981128215789795,0.028694894164800644,0.009140225127339363,0.03207932785153389
1764808542.283637,-0.04180617459416389,-0.02350362518429756,-0.005461772537231445,0.0012630138080567122,0.03344051167368889,-0.025796927511692047,,,,,,
1764808542.29056,,,,,,,-0.005556464195251465,-0.004306912422180176,0.008967757225036621,0.019495271146297455,0.012369041331112385,0.02925664559006691
1764808542.29369,-0.06666355247497559,-0.022120061871409413,0.008289397178590297,0.0027811764739453793,0.030933232977986336,-0.02870761975646019,,,,,,
1764808542.30059,,,,,,,-0.004912257194519043,-0.004114478826522827,0.008921623229980469,0.0032682467717677355,0.012637754902243614,0.029701191931962967
1764808542.303742,-0.09145049546808004,-0.010887304717302322,0.021181904238462446,0.002563862595707178,0.027381375432014465,-0.03191566467285156,,,,,,
1764808542.31062,,,,,,,-0.004004836082458496,0.0012502074241638184,0.007529735565185547,-0.0033065653406083584,0.01713103987276554,0.034869324415922165
1764808542.313794,-0.09133300656825304,0.0017968202888965605,0.027473843989521265,-0.0016521746292710304,0.026244306936860085,-0.03456124663352966,,,,,,
1764808542.320651,,,,,,,-0.0027115345001220703,0.008276551961898804,0.005028128623962402,0.0026900458615273237,0.016242874786257744,0.04144527018070221
1764808542.323846,-0.05237929879575968,0.01357435184419155,0.0038707039535045623,-0.0026862802915275097,0.025545760989189148,-0.03453754261136055,,,,,,
1764808542.330681,,,,,,,-0.0014315247535705566,0.008006691932678223,0.00212705135345459,0.006258681416511536,0.014276663772761822,0.03615756332874298
1764808542.333898,-0.019212065470218656,0.008885901767015456,0.0017301847934722899,-0.0013548736460506916,0.02899276837706566,-0.031385838985443115,,,,,,
1764808542.340711,,,,,,,-0.0002682805061340332,0.006022632122039795,0.00406634621322155,0.0016059206100180745,0.005742830224335194,0.03190775588154793
1764808542.34395,-0.03096066319197416,-0.01095452473461628,-0.003437134841829538,-0.0011761756613850594,0.03031502664089203,-0.02811121568083763,,,,,,
1764808542.350741,,,,,,,-0.001435995101928711,0.0024870336055755615,0.008859872817993164,0.0007624974241480231,0.005069583188742399,0.031401488929986954
1764808542.354002,-0.04065437421053648,0.013167524608969687,0.004732143088430166,0.0032265703193843365,0.02884485386312008,-0.028058569878339767,,,,,,
1764808542.360771,,,,,,,-0.005617976188659668,0.006530463695526123,0.011732220649719238,-0.00458124652504921,0.01029736828058958,0.0275409035384655
1764808542.364055,-0.047510231454670426,0.041242110970616336,0.003937339448928833,0.00490303011611104,0.027374522760510445,-0.03160936385393143,,,,,,
1764808542.370801,,,,,,,-0.005408585071563721,0.011240720748901367,0.011640908196568489,-0.0042723193764686584,0.013431376777589321,0.029146524146199226
1764808542.374107,-0.03667202657610178,0.050146717438101764,0.006101239484548568,0.009260346181690693,0.021479900926351547,-0.03338024020195007,,,,,,
1764808542.380831,,,,,,,-0.003661513328552246,0.010605484247207642,0.01005852222442627,-0.0018217612523585558,0.013165060430765152,0.027880588546395302
1764808542.384159,-0.03214811941087246,0.019893617993593214,-0.005633768103271723,0.013262011110782623,0.019120341166853905,-0.03126036748290062,,,,,,
1764808542.390862,,,,,,,-0.0028221607208251953,0.007514536380767822,0.009825821965932846,0.0058649200946092606,0.010619345121085644,0.019764872267842293
1764808542.394211,-0.040027182222902774,-0.018712883776426315,-0.012597469636052846,0.014484725892543793,0.022389808669686317,-0.028342057019472122,,,,,,
1764808542.400892,,,,,,,-0.003999948501586914,0.0038380026817321777,0.00676727294921875,8.888263255357742e-05,0.015135799534618855,0.01020059548318386
1764808542.404263,-0.05450228229910135,-0.027627427116036413,0.03801613466143608,0.01700221188366413,0.02481781132519245,-0.026841631159186363,,,,,,
1764808542.410922,,,,,,,-0.006436586380004883,0.00643080472946167,0.00549781508743763,0.00019514275481924415,0.02421957440674305,0.013365762308239937
1764808542.414315,-0.05021773684769869,-0.020353636720776558,0.014251812714338301,0.01794593594968319,0.027185659855604172,-0.02229379117488861,,,,,,
1764808542.420952,,,,,,,-0.006917238235473633,0.0059168338775634766,0.004909634590148926,0.0009483288740739226,0.022823279723525047,0.00890217162668705
1764808542.424367,-0.0890124546661973,-0.04441840291917324,-0.00242795779928565,0.02143787406384945,0.04169216379523277,-0.01813499815762043,,,,,,
1764808542.430982,,,,,,,-0.0074803829193115234,0.005323052406311035,0.0053186435252428055,-0.0026559934485703707,0.028823647648096085,0.0047055622562766075
1764808542.43442,-0.09788666599541902,-0.04857435355484485,0.025858079355955122,0.020404117181897163,0.05795494094491005,-0.016242871060967445,,,,,,
1764808542.441012,,,,,,,-0.009895682334899902,0.012953072786331177,0.003913162276148796,0.004977875389158726,0.031832221895456314,0.011002473533153534
1764808542.444472,-0.07124386600255966,-0.06353460679948329,0.015142770204693078,0.024980759248137474,0.07170084118843079,-0.014438845217227936,,,,,,
1764808542.451042,,,,,,,-0.009060859680175781,0.01618310809135437,0.004299759864807129,0.022830642759799957,0.03565545752644539,0.020563488826155663
1764808542.454524,-0.03661941960602998,-0.062309448918700217,0.00014028525352478027,0.03011447750031948,0.08616910129785538,-0.013127789832651615,,,,,,
1764808542.461072,,,,,,,-0.012495458126068115,0.01902592182159424,-0.0004881601780653,0.0639234259724617,0.04572859779000282,0.02258222922682762
1764808542.464576,-0.01489887844622135,-0.06622808366715907,-0.000879120922088623,0.02913842909038067,0.09963271021842957,-0.012159198522567749,,,,,,
1764808542.471103,,,,,,,-0.013898074626922607,0.023160994052886963,-0.0031863469630479813,0.10581149160861969,0.05466083809733391,0.03178318589925766
1764808542.474628,0.018067863871157167,-0.07418518015146255,0.007267799045890569,0.029655257239937782,0.11172311753034592,-0.012718318030238152,,,,,,
1764808542.481133,,,,,,,-0.012028276920318604,0.023787617683410645,7.486529648303986e-05,0.13918498158454895,0.0576302632689476,0.0427723191678524
1764808542.48468,0.04987403797656297,-0.04252513651847839,-0.024847002617269753,0.034955210983753204,0.1230149194598198,-0.01382299792021513,,,,,,
1764808542.491163,,,,,,,-0.013092458248138428,0.013804256916046143,0.0033404845744371414,0.15695439279079437,0.0553511306643486,0.03651868551969528
1764808542.494732,0.05196750312447548,-0.04357259974479675,-0.030890812826156615,0.04231427237391472,0.12068608403205872,-0.013373473659157753,,,,,,
1764808542.501193,,,,,,,-0.012937843799591064,0.010514438152313232,0.006672259420156479,0.1560206264257431,0.05221046507358551,0.027006739750504494
1764808542.504784,0.06260375569015741,-0.07177168926894664,0.010702741930633784,0.046138036996126175,0.10530313104391098,-0.014186004176735878,,,,,,
1764808542.511223,,,,,,,-0.01026386022567749,0.013237982988357544,0.00560748390853405,0.1298750340938568,0.04779734089970589,0.023267660290002823
1764808542.514837,0.04678542431145906,-0.08416296880841255,0.02363572713136673,0.045167744159698486,0.08925341069698334,-0.014459368772804737,,,,,,
1764808542.521253,,,,,,,-0.00851428508758545,0.0048136115074157715,0.0033217668533325195,0.08393736183643341,0.04528598114848137,0.00799589790403843
1764808542.524889,0.05801408981233835,-0.07290799982249736,0.006748743607848882,0.04754328355193138,0.08000824600458145,-0.0127336410805583,,,,,,
1764808542.531283,,,,,,,-0.009861946105957031,-0.002981424331665039,0.00326705165207386,0.028348667547106743,0.04198658838868141,-0.014456413686275482
1764808542.534941,0.07805237697362899,-0.08502864572703837,0.015238485664129256,0.04521297663450241,0.0742650181055069,-0.006807509809732437,,,,,,
1764808542.541314,,,,,,,-0.008762896060943604,0.0010716915130615234,0.0009331721812486649,0.0004828750097658485,0.03555745258927345,-0.020941277965903282
1764808542.544993,0.08185439960509538,-0.09502104743123053,0.03184372963681817,0.04098121449351311,0.06511439383029938,-0.0038210409693419933,,,,,,
1764808542.551344,,,,,,,-0.007267355918884277,0.014106303453445435,-0.0032997094094753265,-0.003980849403887987,0.03334968909621239,-0.023238787427544594
1764808542.555045,0.11891396419405936,-0.05318915387392044,0.007301847445964813,0.034675002098083496,0.05640072748064995,0.0019031260162591934,,,,,,
1764808542.561374,,,,,,,-0.006105184555053711,0.023824691772460938,-0.005916830152273178,0.0020008638966828585,0.028750676661729813,-0.02364198863506317
1764808542.565097,0.16202800651639698,-0.06476911703050137,-0.023103666081279516,0.031242186203598976,0.04887889325618744,0.01139223575592041,,,,,,
1764808542.571404,,,,,,,-0.004678070545196533,0.023609071969985962,-0.00736546516418457,0.022599084302783012,0.02379506640136242,-0.025968261063098907
1764808542.575149,0.1759255989655852,-0.05769289503395557,-0.053077948584407564,0.029989099130034447,0.04520931839942932,0.01761229895055294,,,,,,
1764808542.581434,,,,,,,-0.00740426778793335,0.02167174220085144,-0.004514455795288086,0.042205508798360825,0.021975595504045486,-0.030728192999958992
1764808542.585201,0.16180179654508828,-0.032950667965412135,-0.0396763229586184,0.028779758140444756,0.04028646647930145,0.0206869188696146,,,,,,
1764808542.591464,,,,,,,-0.008526623249053955,0.022106558084487915,0.0008702278137207031,0.049075931310653687,0.02296762354671955,-0.025073504075407982
1764808542.595254,0.10537848305553198,-0.04446925632357597,-0.028470892202854155,0.02973301149904728,0.032305631786584854,0.02428372949361801,,,,,,
1764808542.601494,,,,,,,-0.009998142719268799,0.015245139598846436,0.003714323043823242,0.042047418653964996,0.03186524659395218,-0.026580853387713432
1764808542.605306,0.04743979656696319,-0.01304886666536331,-0.029685382559150455,0.03333840146660805,0.020642051473259926,0.022126302123069763,,,,,,
1764808542.611525,,,,,,,-0.010359346866607666,0.010624468326568604,0.007740620523691177,0.030362531542778015,0.03667385131120682,-0.028640009462833405
1764808542.615358,0.024642273825407027,-0.0007762450695037841,-0.02714505042657256,0.037791527807712555,0.015938812866806984,0.019538260996341705,,,,,,
1764808542.621555,,,,,,,-0.006999790668487549,0.011068403720855713,0.010254386812448502,0.012746620923280716,0.03409404680132866,-0.02632679045200348
1764808542.62541,0.007924655519425868,-0.002101356193423271,-0.051443771511316294,0.041515693068504333,0.01826827973127365,0.016776829957962036,,,,,,
1764808542.631585,,,,,,,-0.004708051681518555,0.007894277572631836,0.011053327471017838,0.0077241649851202965,0.03627943620085716,-0.026528123766183853
1764808542.635462,0.011686930662393569,0.003394318613409996,-0.05433028673306107,0.04447153955698013,0.023526903241872787,0.018734075129032135,,,,,,
1764808542.641615,,,,,,,-0.0041207075119018555,0.004510998725891113,0.008472798392176628,0.008841517381370068,0.0406494177877903,-0.03402285650372505
1764808542.645514,-0.011250585071742534,-0.005987257716059685,-0.02785612130537629,0.04312743991613388,0.033267684280872345,0.021822011098265648,,,,,,
1764808542.651645,,,,,,,-0.0033451318740844727,0.010046660900115967,0.003962038084864616,0.012360883876681328,0.039713047444820404,-0.0378788486123085
1764808542.655566,-0.052154842390120026,-0.004525368469953537,0.002022591868788004,0.038896169513463974,0.036409612745046616,0.021558867767453194,,,,,,
1764808542.661675,,,,,,,-0.002165377140045166,0.00925716757774353,0.004658222198486328,0.01627422496676445,0.038273077458143234,-0.035110026597976685
1764808542.665619,-0.057393035304546355,0.009593173253536223,-0.01623670292124152,0.038065530359745026,0.04095696285367012,0.02363560162484646,,,,,,
1764808542.671705,,,,,,,-0.0017063617706298828,0.00683903694152832,0.0045032501220703125,0.016308313235640526,0.03810529783368111,-0.04026271030306816
1764808542.675671,-0.06043079556524753,0.021508651974797247,-0.004762538226693869,0.0372682623565197,0.04454117268323898,0.024602634832262993,,,,,,
1764808542.681736,,,,,,,-0.00039136409759521484,0.007926195859909058,0.004681706428527832,0.019506871700286865,0.042723219841718674,-0.04000864550471306
1764808542.685723,-0.04060381306707859,0.04555412895083427,-0.007203793898969888,0.03841795027256012,0.04231157526373863,0.02518906258046627,,,,,,
1764808542.691766,,,,,,,3.0934810638427734e-05,0.005600690841674805,0.009220719337463379,0.013178135268390179,0.03943874314427376,-0.03720060735940933
1764808542.695775,-0.03794511525183916,0.05238426723182201,-0.026979338470846412,0.04302443191409111,0.03885894641280174,0.027483021840453148,,,,,,
1764808542.701796,,,,,,,0.0016372203826904297,0.0054680705070495605,0.009880781173706055,0.017610222101211548,0.03296752646565437,-0.031720954924821854
1764808542.705827,-0.03315378932207823,0.039350013613700864,-0.017071692440658807,0.04493045434355736,0.04058840125799179,0.027113907039165497,,,,,,
1764808542.711826,,,,,,,0.0034569501876831055,-0.0031120777130126953,0.005939958617091179,0.022365296259522438,0.03204207867383957,-0.03884997218847275
1764808542.715879,-0.035690614323318,0.021083120039105414,0.030059622699022293,0.04245983436703682,0.03932318836450577,0.028456317260861397,,,,,,
1764808542.721856,,,,,,,0.0028418302536010742,-0.00691947340965271,0.007031325250864029,0.017976270988583565,0.032309725880622864,-0.039179470390081406
1764808542.725931,-0.05820055229514837,0.015436054062843322,0.08163081998229026,0.03899160027503967,0.028249232098460197,0.027842191979289055,,,,,,
1764808542.731886,,,,,,,0.0038851499557495117,-0.006129711866378784,0.0055342912673950195,0.0016923719085752964,0.03705787658691406,-0.035803914070129395
1764808542.735983,-0.09204846136122942,0.022929040166735647,0.06496010955795645,0.037485744804143906,0.019647041335701942,0.022416941821575165,,,,,,
1764808542.741916,,,,,,,0.0030978918075561523,-0.007460206747055054,0.00570988655090332,-0.004028742201626301,0.03853379935026169,-0.03504764288663864
1764808542.746036,-0.10414543412923813,0.061270168998837464,0.03672667937278747,0.037131812423467636,0.013235214166343212,0.019488263875246048,,,,,,
1764808542.751947,,,,,,,0.002786576747894287,-0.009816646575927734,0.008652091026306152,-0.012209439650177956,0.039899736642837524,-0.03866341710090637
1764808542.756088,-0.10408873550593853,0.05769347955584526,0.010174041881412268,0.04222724586725235,0.011769568547606468,0.01577732525765896,,,,,,
1764808542.761977,,,,,,,0.0036271214485168457,-0.008735179901123047,0.010270953178405762,-0.010498717427253723,0.03444265201687813,-0.029539892449975014
1764808542.76614,-0.11534604257941246,0.04157704201340675,0.007380173379182815,0.046596162021160126,0.01391953881829977,0.014204196631908417,,,,,,
1764808542.772007,,,,,,,0.0020304322242736816,-0.012329936027526855,0.009284976869821548,-0.002879413543269038,0.03200079873204231,-0.029958276078104973
1764808542.776192,-0.13531184902638196,0.0064151277393102646,0.029458880326896905,0.04656372219324112,0.018100125715136528,0.013453381136059761,,,,,,
1764808542.782037,,,,,,,0.0012984871864318848,-0.00667184591293335,0.004855874925851822,0.007538597099483013,0.032258592545986176,-0.017917659133672714
1764808542.786244,-0.1323714116603136,-0.023375614890456198,0.04408829418197274,0.044489387422800064,0.023201944306492805,0.013013427145779133,,,,,,
1764808542.792067,,,,,,,0.0023397207260131836,-0.0057749152183532715,0.0018348731100559235,0.016074826940894127,0.03000476025044918,-0.010360405780375004
1764808542.796296,-0.14781038833260535,-0.04250467825233936,0.05457929305806756,0.0354924313724041,0.03443009778857231,0.010770779103040695,,,,,,
1764808542.802097,,,,,,,0.0015666484832763672,-0.01142546534538269,-0.0003815852105617523,0.011142643168568611,0.029962947592139244,-0.010326916351914406
1764808542.806348,-0.14019874428510665,-0.046541386422514916,0.06665178897194564,0.030110253021121025,0.04063580557703972,0.005791205447167158,,,,,,
1764808542.812127,,,,,,,0.0001398324966430664,-0.015302449464797974,0.0038527213037014008,0.004248784389346838,0.02932964824140072,0.0012061684392392635
1764808542.8164,-0.13467588921040297,-0.0370434902369976,0.04712174359373748,0.025169584900140762,0.0354231595993042,0.0012252475135028362,,,,,,
1764808542.822156,,,,,,,-0.0010402202606201172,-0.015189588069915771,0.002684827893972397,0.0015185305383056402,0.028451871126890182,0.007780847139656544
1764808542.826453,-0.1143923951163888,-0.010371756410598754,0.03498831127285957,0.026868950575590134,0.029435839504003525,-0.0049919020384550095,,,,,,
1764808542.832188,,,,,,,0.0006168484687805176,-0.0177767276763916,-0.0006314516067504883,0.0034421319141983986,0.02801431342959404,0.00664634071290493
1764808542.836505,-0.10624445223510265,-0.009682020580768584,0.06179682322144508,0.023204073309898376,0.0240166038274765,-0.010534510016441345,,,,,,
1764808542.842218,,,,,,,0.003327786922454834,-0.02132079005241394,0.0001960955560207367,-0.009299460798501968,0.02391384355723858,0.008391576819121838
1764808542.846557,-0.11711831294894218,-0.03874620250165462,0.1015292602814734,0.020408019423484802,0.01489740889519453,-0.015752175822854042,,,,,,
1764808542.852248,,,,,,,0.004083454608917236,-0.019911348819732666,0.0017974302172660828,-0.017155254259705544,0.022275200113654137,0.01583085022866726
1764808542.856609,-0.1344026252269745,-0.024428923335671423,0.08491364104524254,0.017368078231811523,0.0025224024429917336,-0.021209776401519775,,,,,,
1764808542.862278,,,,,,,0.0034061074256896973,-0.018639057874679565,-0.0001837015151977539,-0.018453560769557953,0.026365816593170166,0.011448686011135578
1764808542.866661,-0.16760872925817966,-0.04190437427163124,0.07467617853879928,0.015455927699804306,-0.0019623609259724617,-0.025119829922914505,,,,,,
1764808542.872308,,,,,,,-0.001967787742614746,-0.013889342546463013,0.002590421587228775,-0.020670641213655472,0.028658265247941017,0.010426298715174198
1764808542.876713,-0.1713347640439868,-0.03570727319717407,0.0805799957551062,0.015450868755578995,0.004834026098251343,-0.029397398233413696,,,,,,
1764808542.882338,,,,,,,-0.0049304962158203125,-0.010272800922393799,0.006551865488290787,-0.018525255843997,0.02849474735558033,0.02306526154279709
1764808542.886765,-0.17463205202370882,-0.024793664994835853,0.04221183278560638,0.018286868929862976,0.018517348915338516,-0.030182231217622757,,,,,,
1764808542.892368,,,,,,,-0.006334125995635986,-0.006599366664886475,0.004451870918273926,-0.008349584415555,0.03399204462766647,0.028999317437410355
1764808542.896817,-0.14999445437341927,-0.01625146209895611,0.05337751605287194,0.02065335400402546,0.028142012655735016,-0.03314180299639702,,,,,,
1764808542.902399,,,,,,,-0.004803776741027832,-0.006664484739303589,-0.0008409023284912109,0.00018300936790183187,0.03806614875793457,0.034142348915338516
1764808542.90687,-0.10510229646265506,-0.025853987702727316,0.09466814234033226,0.014315828680992126,0.036078762263059616,-0.03328214958310127,,,,,,
1764808542.912429,,,,,,,0.0014581084251403809,-0.008889168500900269,-0.0053215064108371735,0.00987744890153408,0.029559480026364326,0.03602999821305275
1764808542.916922,-0.09984072267264127,-0.02671908009946346,0.1080885457318276,0.010452481918036938,0.03558151796460152,-0.03377692773938179,,,,,,
1764808542.922459,,,,,,,0.0047882795333862305,-0.00837564468383789,-0.007360100746154785,0.02160540409386158,0.02650057151913643,0.03555508702993393
1764808542.926974,-0.0855418559461832,-0.00926174934208393,0.10328969408273696,0.0027005523443222046,0.029966246336698532,-0.038741592317819595,,,,,,
1764808542.932489,,,,,,,0.0054435133934021,-0.006859570741653442,-0.002138495445251465,0.02514847368001938,0.024665387347340584,0.039806559681892395
1764808542.937026,-0.09688099608421324,0.009933364993333816,0.075969140958786,0.0006989871617406607,0.031286172568798065,-0.04359448328614235,,,,,,
1764808542.942519,,,,,,,0.0014100074768066406,-0.012594848871231079,0.00018954649567604065,0.013307968154549599,0.027718435972929,0.04395822435617447
1764808542.947078,-0.07033610350787639,0.024520693272352217,0.06786759450249373,0.0008161661680787802,0.02836015447974205,-0.05035731568932533,,,,,,
1764808542.952549,,,,,,,-0.0003444552421569824,-0.011449217796325684,0.005850907415151596,-0.005894488655030727,0.030687594786286354,0.053976237773895264
1764808542.95713,-0.06252864462733268,0.0067775313109159465,0.055218467744439836,-3.605987876653671e-05,0.020367372781038284,-0.056190431118011475,,,,,,
1764808542.962579,,,,,,,0.0012070536613464355,-0.006283164024353027,0.0035017691552639008,-0.005332625471055508,0.023341530933976173,0.05707988888025284
1764808542.967182,-0.006415712261199951,-0.013689502656459808,0.04094217817597091,0.0028129899874329567,0.013160591945052147,-0.05796968936920166,,,,,,
1764808542.97261,,,,,,,0.0027521848678588867,-0.0049915313720703125,-0.0012270249426364899,-0.0008015232160687447,0.014372271485626698,0.05070241540670395
1764808542.977234,0.018092706051468847,-0.03847030816972256,0.08223419270291923,-0.0006425045430660248,0.003723881905898452,-0.05482451245188713,,,,,,
1764808542.98264,,,,,,,-0.00027233362197875977,-0.00082358717918396,-0.004200223833322525,0.0030695556197315454,0.013541098684072495,0.05592840164899826
1764808542.987287,-0.017596739228069782,-0.06883914294838905,0.10554624083787202,-0.00675099715590477,-0.0058488501235842705,-0.05005798861384392,,,,,,
1764808542.992669,,,,,,,-0.004092991352081299,0.0007179975509643555,-0.00422847643494606,-0.0017936427611857653,0.016361918300390244,0.04952776059508324
1764808542.997339,-0.07977963915765285,-0.06675123075842856,0.08457914839386939,-0.008847769349813461,-0.006098451558500528,-0.04926722124218941,,,,,,
1764808543.002699,,,,,,,-0.008368313312530518,-0.00027063488960266113,-0.0023075342178344727,-0.01757018081843853,0.020983567461371422,0.04662538319826126
1764808543.007391,-0.1145943474292755,-0.06364157430529593,0.0370272697545588,-0.006031743250787258,0.004999739583581686,-0.053394585847854614,,,,,,
1764808543.012729,,,,,,,-0.009127020835876465,-0.002834826707839966,0.00019610300660133362,-0.03816467151045799,0.01718616671860218,0.04686613380908966
1764808543.017443,-0.09732932437360287,-0.0599134936928749,-0.00041851767301559446,-0.004204634577035904,0.02362203039228916,-0.05432381108403206,,,,,,
1764808543.022759,,,,,,,-0.010077714920043945,-0.0034238100051879883,0.0022592581808567047,-0.06030464172363281,0.016449004411697388,0.03694046661257744
1764808543.027495,-0.05152297422736883,-0.0903916340649128,-0.002757628145068884,0.0024567306973040104,0.03487361967563629,-0.05503620579838753,,,,,,
1764808543.032789,,,,,,,-0.011207997798919678,0.007346034049987793,0.001467827707529068,-0.056881412863731384,0.014140576124191284,0.03917991742491722
1764808543.037547,0.000531038136780262,-0.10831892042160034,-0.019361556943506,0.005896140821278095,0.043445419520139694,-0.05276276543736458,,,,,,
1764808543.042819,,,,,,,-0.011797964572906494,0.014021456241607666,-0.0004572868347167969,-0.04705840349197388,0.011814039200544357,0.03378475084900856
1764808543.0476,0.041973932376503945,-0.10739069966077804,0.0030839374899864196,0.007132113911211491,0.04963194206357002,-0.0534898117184639,,,,,,
1764808543.05285,,,,,,,-0.015046238899230957,0.015487432479858398,-0.002009749412536621,-0.060410160571336746,0.014140309765934944,0.03331044316291809
1764808543.057652,0.0837833218410611,-0.11933189734518528,-0.0057269993446767324,0.006778451148420572,0.05467298626899719,-0.05366549268364906,,,,,,
1764808543.062881,,,,,,,-0.016694188117980957,0.009996145963668823,0.0015859603881835938,-0.08662812411785126,0.015620228834450245,0.033916179090738297
1764808543.067704,0.1140650628581643,-0.09350421312749385,-0.08349895194172859,0.010556943714618683,0.06073673814535141,-0.05665009841322899,,,,,,
1764808543.07291,,,,,,,-0.017547547817230225,0.0057946741580963135,0.004767894744873047,-0.11247996240854263,0.015787741169333458,0.039750900119543076
1764808543.077756,0.20621435424536466,-0.014064765709638594,-0.10764306698665022,0.01766119711101055,0.05638374760746956,-0.05715308338403702,,,,,,
1764808543.08294,,,,,,,-0.02019590139389038,0.011498212814331055,0.006415843963623047,-0.12672586739063263,0.02590535581111908,0.031941112130880356
1764808543.087808,0.29389146865457294,-0.013047697621583938,-0.1239652562342584,0.04039500653743744,0.036857981234788895,-0.04417603090405464,,,,,,
1764808543.092971,,,,,,,-0.02417445182800293,0.02456161379814148,0.0062062740325927734,-0.12587791681289673,0.030517151579260826,0.015348552726209164
1764808543.09786,0.32007834157347675,-0.07593056251406669,-0.11882613978013395,0.06285641342401505,0.019454555585980415,-0.0291198268532753,,,,,,
1764808543.103,,,,,,,-0.02473527193069458,0.03929251432418823,0.010574936866760254,-0.12032366544008255,0.03540724888443947,0.00246344693005085
1764808543.107913,0.30927286992073055,-0.021387655943632126,-0.09010061522908508,0.07099370658397675,0.008221875876188278,-0.02316632866859436,,,,,,
1764808543.11303,,,,,,,-0.024115443229675293,0.051230400800704956,0.011214256286621094,-0.12834297120571136,0.04957127198576927,-0.021408330649137497
1764808543.117965,0.35768881804347036,-0.009968436306715012,-0.16437208542451262,0.08367237448692322,-0.008270196616649628,-0.013840330764651299,,,,,,
1764808543.123061,,,,,,,-0.024761497974395752,0.061642736196517944,0.012096405029296875,-0.1247757077217102,0.0599576011300087,-0.04372914880514145
1764808543.128016,0.4608069549515843,0.013640402817726134,-0.19946699887700378,0.10314567387104034,-0.02405635081231594,0.00752967270091176,,,,,,
1764808543.133091,,,,,,,-0.02535867691040039,0.07627794146537781,0.01118290051817894,-0.1033492460846901,0.07043740153312683,-0.0805572047829628
1764808543.138068,0.5523167793914675,0.10696341415941715,-0.20947043343186378,0.12105021625757217,-0.04050523787736893,0.040750689804553986,,,,,,
1764808543.143121,,,,,,,-0.027827024459838867,0.10120567679405212,0.014701247215270996,-0.075767382979393,0.073161281645298,-0.11729644238948822
1764808543.148121,0.6252528362646699,0.08521569273173808,-0.27267259340658784,0.15056949853897095,-0.05526633933186531,0.07719045132398605,,,,,,
1764808543.153152,,,,,,,-0.021456897258758545,0.11674264073371887,0.010282758623361588,-0.07086823135614395,0.07125446200370789,-0.17724500596523285
1764808543.158173,0.6709665396913885,-0.042241058880090714,-0.22986893220767377,0.1772450953722,-0.07089801877737045,0.10898950695991516,,,,,,
1764808543.163182,,,,,,,-0.022646963596343994,0.12078610062599182,0.0058841705322265625,-0.12388956546783447,0.0735732764005661,-0.23492027819156647
1764808543.168226,0.6973319840475917,-0.1268938570320606,-0.22417802708968518,0.18945515155792236,-0.08599255234003067,0.14175358414649963,,,,,,
1764808543.173211,,,,,,,-0.02997875213623047,0.11553451418876648,0.012538552284240723,-0.21010622382164001,0.0739477127790451,-0.2930280566215515
1764808543.178277,0.7712813096165657,-0.07035480820834636,-0.341460152298212,0.20166604220867157,-0.08034233748912811,0.18541483581066132,,,,,,
1764808543.183241,,,,,,,-0.04046618938446045,0.10906615853309631,0.01335906982421875,-0.29154202342033386,0.0759299024939537,-0.3597926199436188
1764808543.188329,0.8723623877391219,-0.011999065351486206,-0.42699543237313625,0.23677529394626617,-0.09244746714830399,0.2343461662530899,,,,,,
1764808543.193271,,,,,,,-0.050654590129852295,0.12457659840583801,0.014382001012563705,-0.35889866948127747,0.08143971860408783,-0.4404880106449127
1764808543.198381,1.0040291582614183,-0.03191080352365971,-0.42286308180876075,0.2855618894100189,-0.1350421905517578,0.29015249013900757,,,,,,
1764808543.203302,,,,,,,-0.05886542797088623,0.15118077397346497,0.019656658172607422,-0.40889471769332886,0.08058430999517441,-0.5142271518707275
1764808543.208433,1.1133663158148526,-0.09059095602929591,-0.41884865853562947,0.3390727937221527,-0.1762934923171997,0.35247206687927246,,,,,,
1764808543.213332,,,,,,,-0.0646701455116272,0.16740259528160095,0.021652337163686752,-0.46895191073417664,0.08475455641746521,-0.6077262163162231
1764808543.218485,1.1973331775292753,-0.17114684025645255,-0.45830724709033965,0.3833308815956116,-0.1991397589445114,0.42387616634368896,,,,,,
1764808543.223362,,,,,,,-0.07501620054244995,0.18270716071128845,0.020020484924316406,-0.5508820414543152,0.10300839692354202,-0.7112939357757568
1764808543.228539,1.2344538246557115,-0.29350597646832466,-0.5138401876114308,0.4372415244579315,-0.2111002802848816,0.4946043789386749,,,,,,
1764808543.233392,,,,,,,-0.0851251482963562,0.19329425692558289,0.023156173527240753,-0.6465891599655151,0.12937316298484802,-0.8255100250244141
1764808543.23859,1.2160010531201957,-0.3290098360478878,-0.5836555551808327,0.5012875199317932,-0.20980660617351532,0.5718686580657959,,,,,,
1764808543.243423,,,,,,,-0.0957709550857544,0.20817139744758606,0.03268015384674072,-0.7367047667503357,0.16344217956066132,-0.9307824373245239
1764808543.248642,1.1436483490929006,-0.3843722423076629,-0.7032418656785041,0.562806248664856,-0.18449166417121887,0.646269679069519,,,,,,
1764808543.253453,,,,,,,-0.10269331932067871,0.22252914309501648,0.03589927405118942,-0.7966781258583069,0.18138602375984192,-1.0250943899154663
1764808543.258694,1.1190154276177287,-0.5497200408965349,-0.8128256184041499,0.6121244430541992,-0.12992161512374878,0.6984496712684631,,,,,,
1764808543.263482,,,,,,,-0.10370504856109619,0.22910958528518677,0.02872251719236374,-0.881898820400238,0.19340939819812775,-1.110302448272705
1764808543.268747,1.196157119487226,-0.8191706035166978,-0.9380044151466339,0.6445600986480713,-0.06489946693181992,0.7382210493087769,,,,,,
1764808543.273513,,,,,,,-0.11236488819122314,0.21804577112197876,0.02090752124786377,-0.9898614883422852,0.19939619302749634,-1.1739773750305176
1764808543.278798,1.3526362597048283,-1.0574749172449112,-1.1189349827926605,0.6723582148551941,0.0322088822722435,0.7660733461380005,,,,,,
1764808543.283543,,,,,,,-0.13402807712554932,0.18610918521881104,0.032379984855651855,-1.159574270248413,0.21393226087093353,-1.2382395267486572
1764808543.288851,1.6165177900210022,-0.9514707035064697,-1.203038330368325,0.7286782264709473,0.13441354036331177,0.8091731071472168,,,,,,
1764808543.293573,,,,,,,-0.17102032899856567,0.18716108798980713,0.05923104286193848,-1.3764818906784058,0.2783772945404053,-1.2889999151229858
1764808543.298903,1.8211077579349277,-0.8257488128632307,-1.181585207973048,0.8371706604957581,0.1908521205186844,0.8945310711860657,,,,,,
1764808543.303603,,,,,,,-0.19549596309661865,0.2085598111152649,0.07877017557621002,-1.554654836654663,0.35724467039108276,-1.3528887033462524
1764808543.308955,1.751404983894527,-0.8301672138273716,-0.9905927535831928,0.9530514478683472,0.22176635265350342,0.9996351599693298,,,,,,
1764808543.313633,,,,,,,-0.19547605514526367,0.22049811482429504,0.0765831470489502,-1.6124659776687622,0.43339163064956665,-1.4223368167877197
1764808543.319007,1.5685124685257672,-0.78949442717731,-0.7972212220370769,1.0004997253417969,0.25700628757476807,1.0700112581253052,,,,,,
1764808543.323663,,,,,,,-0.16487914323806763,0.27255553007125854,0.05617225170135498,-1.6231474876403809,0.49037423729896545,-1.5467029809951782
1764808543.329059,1.6801982350319622,-0.5677350055366754,-0.8675216697096824,1.0074445009231567,0.3146951496601105,1.1061078310012817,,,,,,
1764808543.333694,,,,,,,-0.12356048822402954,0.35009247064590454,0.026358485221862793,-1.441633701324463,0.5514165759086609,-1.621577501296997
1764808543.339111,2.182185926155746,-0.09318214156627655,-1.040761098331213,1.009088397026062,0.38956642150878906,1.1597360372543335,,,,,,
1764808543.343724,,,,,,,-0.07419329881668091,0.39771512150764465,0.010717153549194336,-1.1483933925628662,0.6084795594215393,-1.640153169631958
1764808543.349164,2.6813345944613216,0.38380700964033604,-1.1250737047433852,1.0367746353149414,0.4681914746761322,1.2691607475280762,,,,,,
1764808543.353755,,,,,,,-0.03340744972229004,0.4437984228134155,0.03603672981262207,-0.8147373795509338,0.6650134325027466,-1.636780023574829
1764808543.359215,2.7792437645494936,0.6040864218562841,-1.166303540754318,1.0774478912353516,0.5587116479873657,1.4238722324371338,,,,,,
1764808543.363784,,,,,,,-0.011948943138122559,0.45459240674972534,0.07183118164539337,-0.49360737204551697,0.7208268642425537,-1.640553593635559
1764808543.369267,2.467544544264674,0.677635057669878,-1.147694701874256,1.1034141778945923,0.6607764959335327,1.537712812423706,,,,,,
1764808543.373814,,,,,,,-0.0022825002670288086,0.4127458930015564,0.09536111354827881,-0.23598966002464294,0.7876725196838379,-1.6524555683135986
1764808543.37932,2.1927608039230106,0.788242965811491,-1.1124006856530904,1.1279630661010742,0.7437140345573425,1.5774426460266113,,,,,,
1764808543.383844,,,,,,,0.011924386024475098,0.379317045211792,0.11955438554286957,-0.08858942240476608,0.8636751174926758,-1.6626813411712646
1764808543.389371,2.1897814958512782,0.9450351175010204,-1.0532160907566548,1.1752957105636597,0.7929342985153198,1.5815225839614868,,,,,,
1764808543.393874,,,,,,,0.03032904863357544,0.3657541275024414,0.14312192797660828,0.014744955115020275,0.940022885799408,-1.6794546842575073
1764808543.399425,2.37372352027297,1.0704565638929604,-0.9706120418280363,1.2346972227096558,0.805774986743927,1.6072421073913574,,,,,,
1764808543.403904,,,,,,,0.03985452651977539,0.34071534872055054,0.16258081793785095,0.03229198977351189,1.0322965383529663,-1.72440505027771
1764808543.409477,2.5259143156468866,1.2272937237679957,-0.8933101909607648,1.3093266487121582,0.7962856292724609,1.6554346084594727,,,,,,
1764808543.413935,,,,,,,0.046383440494537354,0.3182392120361328,0.18666350841522217,0.009610111825168133,1.1268430948257446,-1.7705200910568237
1764808543.419528,2.6000223389089108,1.280399291011691,-0.8369242868721485,1.3792251348495483,0.778475821018219,1.7123786211013794,,,,,,
1764808543.423965,,,,,,,0.05869525671005249,0.31597697734832764,0.19172583520412445,0.04970809817314148,1.1941485404968262,-1.8209874629974365
1764808543.42958,2.6676380775421857,1.1336708526968955,-0.8035445798397064,1.433422565460205,0.7551816701889038,1.762101650238037,,,,,,
1764808543.433995,,,,,,,0.07377797365188599,0.3442320227622986,0.17315827310085297,0.1537543386220932,1.2504339218139648,-1.8655599355697632
1764808543.439632,2.7947698349833487,1.0226204614847898,-0.7894552642107009,1.465144395828247,0.7343838214874268,1.8148438930511475,,,,,,
1764808543.444026,,,,,,,0.08110004663467407,0.3895341753959656,0.15422093868255615,0.29710397124290466,1.3072059154510498,-1.8984140157699585
1764808543.449684,2.8738498014390466,0.9250234260857104,-0.9003245267022401,1.4798874855041504,0.7336434721946716,1.8820470571517944,,,,,,
1764808543.454055,,,,,,,0.08029097318649292,0.41287750005722046,0.13844585418701172,0.4380544126033783,1.3618816137313843,-1.9159680604934692
1764808543.459736,2.784308062201738,0.8219184409201145,-1.059609079729393,1.4936926364898682,0.7724730372428894,1.960572600364685,,,,,,
1764808543.464085,,,,,,,0.07097083330154419,0.39079898595809937,0.14371347427368164,0.48251283168792725,1.4223295450210571,-1.9433847665786743
1764808543.469789,2.5882670191854236,0.8133902665495872,-1.128954857025668,1.5188016891479492,0.8199846148490906,2.0310442447662354,,,,,,
1764808543.474115,,,,,,,0.06079143285751343,0.3417994976043701,0.16866984963417053,0.43006452918052673,1.4618340730667114,-2.001485586166382
1764808543.479841,2.4803765533089637,0.7572106986880301,-1.2286959917813538,1.5542629957199097,0.8205656409263611,2.090726852416992,,,,,,
1764808543.484145,,,,,,,0.056406617164611816,0.3134564161300659,0.20455479621887207,0.3135099709033966,1.477168321609497,-2.0765652656555176
1764808543.489893,2.60882640761137,0.7797574615389108,-1.3915765234738589,1.596997618675232,0.7877779006958008,2.1543755531311035,,,,,,
1764808543.494175,,,,,,,0.06027519702911377,0.3315545320510864,0.22313055396080017,0.22168231010437012,1.4769020080566406,-2.15498948097229
1764808543.499945,2.95482244977355,0.8464204294919967,-1.3890607412606477,1.6343815326690674,0.7501646876335144,2.251352548599243,,,,,,
1764808543.504206,,,,,,,0.07864516973495483,0.36256706714630127,0.21683213114738464,0.18903805315494537,1.507954716682434,-2.228144645690918
1764808543.509997,3.1913638454824684,0.836598708179593,-1.1998930911451577,1.6574652194976807,0.6784446835517883,2.378539800643921,,,,,,
1764808543.514236,,,,,,,0.08396607637405396,0.36992084980010986,0.2163066565990448,0.2035682648420334,1.5849400758743286,-2.325376033782959
1764808543.520049,3.0657705496549603,0.8912725476533174,-1.0916035429485142,1.6840622425079346,0.569585919380188,2.5027575492858887,,,,,,
1764808543.524266,,,,,,,0.06287842988967896,0.3638678789138794,0.23435243964195251,0.22160744667053223,1.6951451301574707,-2.4567534923553467
1764808543.530102,2.750889192202687,1.1410668081670998,-1.3045942594610154,1.730077862739563,0.4662984311580658,2.600198268890381,,,,,,
1764808543.534297,,,,,,,0.05822157859802246,0.38540589809417725,0.2688453793525696,0.2765186131000519,1.8011623620986938,-2.606607675552368
1764808543.540154,2.5910873373031613,1.6127689588814973,-1.61503924190104,1.807195782661438,0.4058259129524231,2.682089328765869,,,,,,
1764808543.544327,,,,,,,0.08402812480926514,0.42658716440200806,0.3125702440738678,0.32433947920799255,1.9179025888442993,-2.7319836616516113
1764808543.550205,2.6356384266912936,2.1480343579679726,-1.81971878779456,1.90903639793396,0.39234018325805664,2.8038673400878906,,,,,,
1764808543.554356,,,,,,,0.12557733058929443,0.46308112144470215,0.35993292927742004,0.308308869600296,2.02851939201355,-2.837711811065674
1764808543.560257,2.613272865626216,2.4090455935448407,-1.973811032875627,2.016170024871826,0.42344024777412415,2.973994731903076,,,,,,
1764808543.564386,,,,,,,0.1690574288368225,0.44692540168762207,0.3821471929550171,0.2003173828125,2.132404088973999,-2.9596312046051025
1764808543.57031,2.353423075044155,2.345718492016196,-2.0192716383241116,2.1103875637054443,0.47367918491363525,3.1266958713531494,,,,,,
1764808543.574417,,,,,,,0.20260533690452576,0.37753552198410034,0.3986387848854065,0.04588385298848152,2.249809503555298,-3.0896644592285156
1764808543.580363,2.191052246439457,2.2897306473344563,-1.9419788475461304,2.183927297592163,0.4875834286212921,3.2104408740997314,,,,,,
1764808543.584447,,,,,,,0.227344810962677,0.34319889545440674,0.43408238887786865,-0.10792917758226395,2.375011920928955,-3.2020554542541504
1764808543.590415,2.4386083726376295,2.4744968476206064,-2.03595710792616,2.2638895511627197,0.4517655074596405,3.266876220703125,,,,,,
1764808543.594477,,,,,,,0.2533282935619354,0.3891240954399109,0.46211373805999756,-0.11399240046739578,2.488406181335449,-3.2857213020324707
1764808543.600466,2.8456425286084412,2.783620664459467,-2.0914912174910305,2.3443546295166016,0.38376298546791077,3.380431652069092,,,,,,
1764808543.604507,,,,,,,0.27577826380729675,0.43487298488616943,0.44746828079223633,0.00676494836807251,2.6263179779052734,-3.3642170429229736
1764808543.610518,2.9042583837062117,2.9012352364927527,-2.0225681956514716,2.3961517810821533,0.32642778754234314,3.5437614917755127,,,,,,
1764808543.614537,,,,,,,0.2972969114780426,0.44922584295272827,0.43500030040740967,0.16746115684509277,2.7483856678009033,-3.430934429168701
1764808543.62057,2.5249463473975657,2.8672461653903123,-1.9411419583305716,2.426703929901123,0.29907864332199097,3.701641321182251,,,,,,
1764808543.624568,,,,,,,0.3312910795211792,0.43357551097869873,0.4146280884742737,0.3456571400165558,2.857430934906006,-3.4898927211761475
1764808543.630622,1.9437533098727464,2.961299829094112,-1.888266692711413,2.445465087890625,0.27075618505477905,3.7995612621307373,,,,,,
1764808543.634598,,,,,,,0.35908687114715576,0.3851970434188843,0.4376869201660156,0.45996615290641785,2.965874433517456,-3.5843794345855713
1764808543.640674,1.672695896577835,3.3147909031867977,-2.05700793313086,2.5144457817077637,0.24303963780403137,3.8656795024871826,,,,,,
1764808543.644628,,,,,,,0.40088343620300293,0.37556588649749756,0.49683690071105957,0.47082939743995667,3.0201034545898438,-3.635197401046753
1764808543.650727,1.4949971504598856,3.5101527317672967,-2.00832646593973,2.6021366119384766,0.2323015034198761,3.9710052013397217,,,,,,
1764808543.654658,,,,,,,0.4469859004020691,0.32090383768081665,0.4594495892524719,0.43534544110298157,3.0874054431915283,-3.680779457092285
1764808543.660779,1.114070664691925,3.2383655428931117,-1.6535194869428873,2.6359355449676514,0.24143962562084198,4.058292388916016,,,,,,
1764808543.664688,,,,,,,0.4573795795440674,0.23745322227478027,0.42778798937797546,0.4122881293296814,3.159943103790283,-3.709491014480591
1764808543.670831,0.7806716537743806,2.8834961661845444,-1.5755875214785338,2.6450257301330566,0.2718212306499481,4.092298984527588,,,,,,
1764808543.674718,,,,,,,0.47160232067108154,0.22144567966461182,0.4114832282066345,0.4351010322570801,3.215466022491455,-3.706317663192749
1764808543.680883,0.5768412720561027,2.8679940611481665,-1.620292924645543,2.66707181930542,0.2891390025615692,4.093554496765137,,,,,,
1764808543.684748,,,,,,,0.4767695963382721,0.20189768075942993,0.4049590229988098,0.4125666618347168,3.288480758666992,-3.6936991214752197
1764808543.690935,0.48157764804065223,3.037809945061803,-1.5238696092009543,2.6977334022521973,0.2892037332057953,4.089555263519287,,,,,,
1764808543.694778,,,,,,,0.4862688183784485,0.14988452196121216,0.40220436453819275,0.30375710129737854,3.357677459716797,-3.6598122119903564
1764808543.700987,0.3287777808576822,3.1290836226582526,-1.3441747208297252,2.735971212387085,0.28054359555244446,4.095217704772949,,,,,,
1764808543.704808,,,,,,,0.5041803121566772,0.06970512866973877,0.3862862288951874,0.12092988193035126,3.4029550552368164,-3.6251657009124756
1764808543.71104,0.09442308153808117,3.048195729997754,-1.1665944865249096,2.762165069580078,0.25174522399902344,4.095800399780273,,,,,,
1764808543.714839,,,,,,,0.5139421224594116,0.0029554367065429688,0.3714827299118042,-0.0019582195673137903,3.4267165660858154,-3.573040723800659
1764808543.721092,-0.14754150826334952,2.9261446368217467,-0.9009311873584985,2.7749853134155273,0.2083549052476883,4.070158004760742,,,,,,
1764808543.724869,,,,,,,0.5184224247932434,0.004182279109954834,0.32500752806663513,0.0672571063041687,3.4439046382904053,-3.5155789852142334
1764808543.731143,-0.3418056047350168,2.8795792850017548,-0.60336205310449,2.758774518966675,0.18677479028701782,4.03305196762085,,,,,,
1764808543.7349,,,,,,,0.5196200609207153,0.06800991296768188,0.2735271751880646,0.3268127739429474,3.452756404876709,-3.441185474395752
1764808543.741196,-0.5309405216246843,2.9142721204593776,-0.4082821102052927,2.7018606662750244,0.22198472917079926,4.006252288818359,,,,,,
1764808543.744929,,,,,,,0.5295335054397583,0.13012462854385376,0.2195603847503662,0.7130967974662781,3.446226119995117,-3.328073024749756
1764808543.751248,-0.9267290609598159,2.8415046981513497,-0.3704980307340622,2.6190743446350098,0.3123694956302643,3.973968029022217,,,,,,
1764808543.754959,,,,,,,0.5382775068283081,0.09984296560287476,0.1612151563167572,0.981568455696106,3.451383352279663,-3.2442243099212646
1764808543.7613,-1.4411737903356552,2.7952123180538413,-0.3971873002171516,2.5358736515045166,0.39866769313812256,3.8884048461914062,,,,,,
1764808543.764989,,,,,,,0.5548193454742432,-0.0015624761581420898,0.17699646949768066,1.0880030393600464,3.400380849838257,-3.13667631149292
1764808543.771353,-1.6666992865115404,2.9722216206029057,-0.5854354974001645,2.495682954788208,0.4581219553947449,3.752999782562256,,,,,,
1764808543.775019,,,,,,,0.5871182680130005,-0.11838990449905396,0.2145310342311859,1.0402086973190308,3.3389134407043457,-3.097790479660034
1764808543.781404,-1.531259719452262,3.4547941248998044,-0.7229980479627848,2.4970595836639404,0.4515366554260254,3.6165642738342285,,,,,,
1764808543.785049,,,,,,,0.6047988533973694,-0.15654265880584717,0.2974027991294861,0.8253298997879028,3.2502894401550293,-3.055020809173584
1764808543.791456,-1.0558592987418174,4.023662810641527,-1.0336603264153004,2.5309743881225586,0.4451969861984253,3.528815507888794,,,,,,
1764808543.795079,,,,,,,0.6245923042297363,-0.130629301071167,0.3358042240142822,0.6820976734161377,3.1792237758636475,-2.9347124099731445
1764808543.801508,-0.7077694991707801,3.9556089728519317,-0.9692674953512846,2.564990997314453,0.4185180366039276,3.4661529064178467,,,,,,
1764808543.80511,,,,,,,0.5841004252433777,-0.17693102359771729,0.28444963693618774,0.5205017328262329,3.1920981407165527,-2.89460825920105
1764808543.81156,-0.6665297262877226,3.443141973289847,-0.5151525853842497,2.55533766746521,0.3273351192474365,3.386591911315918,,,,,,
1764808543.815141,,,,,,,0.5288887619972229,-0.19766122102737427,0.26568469405174255,0.3479006588459015,3.184166193008423,-2.811478614807129
1764808543.821614,-0.7569879958480596,3.189878575360775,-0.3578419627785682,2.5171713829040527,0.22331351041793823,3.271519184112549,,,,,,
1764808543.825171,,,,,,,0.5391328930854797,-0.16290217638015747,0.25171446800231934,0.28641068935394287,3.145009756088257,-2.6618731021881104
1764808543.831666,-0.9140794227451086,3.2433941847100853,-0.40293651139363645,2.4765381813049316,0.13232900202274323,3.1434741020202637,,,,,,
1764808543.8352,,,,,,,0.5585941672325134,-0.15509605407714844,0.21328747272491455,0.26199111342430115,3.1038033962249756,-2.5812113285064697
1764808543.841717,-1.139841650286317,3.4474253496974705,-0.48129517783746123,2.42814302444458,0.05129934847354889,3.00734281539917,,,,,,
1764808543.84523,,,,,,,0.559554398059845,-0.14081299304962158,0.22725902497768402,0.2388642430305481,3.0386648178100586,-2.476609945297241
1764808543.851769,-1.2948515947341919,3.5684935693159696,-0.8743621832542121,2.399411916732788,0.038933224976062775,2.8933608531951904,,,,,,
1764808543.85526,,,,,,,0.5591156482696533,-0.11304348707199097,0.2287517786026001,0.28942328691482544,2.9816322326660156,-2.388908863067627
1764808543.861821,-1.4046844268500804,3.442657404643297,-1.0589496659725903,2.364542007446289,0.07388079911470413,2.8068923950195312,,,,,,
1764808543.86529,,,,,,,0.528087854385376,-0.1096799373626709,0.22675323486328125,0.24851094186306,2.950968027114868,-2.3588292598724365
1764808543.871873,-1.4013555746883153,3.451178564751148,-1.0380482591759412,2.3209242820739746,0.137685626745224,2.729477643966675,,,,,,
1764808543.87532,,,,,,,0.511015772819519,-0.08680993318557739,0.2615460157394409,0.22343142330646515,2.931562900543213,-2.2679805755615234
1764808543.881925,-1.1831284188270568,3.60453431225121,-1.1603588800709694,2.304293155670166,0.19660690426826477,2.6714117527008057,,,,,,
1764808543.885351,,,,,,,0.5096890926361084,-0.09125036001205444,0.2766672372817993,0.150808647274971,2.891061782836914,-2.2632639408111572
1764808543.891978,-0.8318453761726617,3.798714822092652,-1.1782628586173056,2.3026528358459473,0.2236209362745285,2.631329298019409,,,,,,
1764808543.895381,,,,,,,0.5048381686210632,-0.05991286039352417,0.31617414951324463,0.0915684923529625,2.8699264526367188,-2.1891205310821533
1764808543.90203,-0.45373687043488026,3.760899762961268,-1.0228899260759352,2.3143904209136963,0.19726304709911346,2.6173672676086426,,,,,,
1764808543.905411,,,,,,,0.4776049256324768,-0.060281991958618164,0.27745676040649414,0.0796106606721878,2.899897575378418,-2.180744171142578
1764808543.912082,-0.28397242444753645,3.4964860254645345,-0.8593325180351734,2.2965126037597656,0.11019659787416458,2.597295045852661,,,,,,
1764808543.915442,,,,,,,0.43985575437545776,-0.05156058073043823,0.2748711109161377,-0.003104459960013628,2.9072110652923584,-2.1974618434906006
1764808543.922134,-0.22413608764410017,3.4786230365157125,-0.8434744391679764,2.261044979095459,0.023436877876520157,2.5581507682800293,,,,,,
1764808543.925472,,,,,,,0.4635893702507019,-0.0040495991706848145,0.2961694598197937,-0.04533272981643677,2.886280059814453,-2.1093177795410156
1764808543.932186,-0.1950643069386482,3.430221116918325,-0.8531815941900014,2.241116762161255,-0.0483960323035717,2.5448670387268066,,,,,,
1764808543.935501,,,,,,,0.4789660573005676,-0.017808258533477783,0.25984346866607666,-0.03774964436888695,2.8613059520721436,-2.1236209869384766
1764808543.942238,-0.3360112392425537,3.2488784613400696,-0.9630559273600577,2.1983611583709717,-0.09823185950517654,2.5377302169799805,,,,,,
1764808543.945531,,,,,,,0.44962090253829956,-0.012562751770019531,0.26903730630874634,-0.09574450552463531,2.8100345134735107,-2.1485531330108643
1764808543.952291,-0.4052221381127834,3.3018595254212615,-1.1736007120251655,2.149545669555664,-0.08346036821603775,2.542396068572998,,,,,,
1764808543.955561,,,,,,,0.4489978551864624,0.05162036418914795,0.25685393810272217,-0.0966891273856163,2.782221555709839,-2.108139753341675
1764808543.962343,-0.40938744109869,3.2101796051114797,-0.9668471363365649,2.0832056999206543,-0.0761241540312767,2.564539670944214,,,,,,
1764808543.965592,,,,,,,0.4371059536933899,0.04289746284484863,0.199684739112854,-0.14741621911525726,2.7677652835845947,-2.1590754985809326
1764808543.972394,-0.4853033905655145,2.950484128308296,-0.7314706927537917,1.9879556894302368,-0.10901632905006409,2.5678679943084717,,,,,,
1764808543.975622,,,,,,,0.4290114641189575,0.019248902797698975,0.2042752504348755,-0.22126275300979614,2.6955366134643555,-2.1590752601623535
1764808543.982446,-0.6132651690900326,2.7127456317692995,-0.7722223898589611,1.8972562551498413,-0.13213740289211273,2.5476887226104736,,,,,,
1764808543.985652,,,,,,,0.4438289403915405,0.003431081771850586,0.17210185527801514,-0.2464679628610611,2.6218695640563965,-2.172839879989624
1764808543.992498,-0.7443132231920957,2.33631178124547,-0.8020949655532836,1.7894086837768555,-0.14872170984745026,2.501208782196045,,,,,,
1764808543.995682,,,,,,,0.4320635199546814,-0.003735065460205078,0.15832258760929108,-0.33084365725517273,2.5158259868621826,-2.2072441577911377
1764808544.002552,-0.717098468530178,2.386820317733288,-0.6724150579992682,1.680388331413269,-0.1589391827583313,2.4439146518707275,,,,,,
1764808544.005712,,,,,,,0.42735999822616577,-0.005074441432952881,0.14949914813041687,-0.3762776553630829,2.447119951248169,-2.1333415508270264
1764808544.012603,-0.6833563579261303,2.4553426498174664,-0.3001777823824435,1.5825449228286743,-0.1840810328722,2.407785654067993,,,,,,
1764808544.015742,,,,,,,0.4110111594200134,-0.05662804841995239,0.08179426193237305,-0.46146661043167114,2.343224048614502,-2.1777117252349854
1764808544.022655,-0.8859510603696107,2.3721482337802646,0.18694748984798787,1.4697942733764648,-0.23260542750358582,2.3607544898986816,,,,,,
1764808544.025772,,,,,,,0.4142228960990906,-0.0652872622013092,0.047852784395217896,-0.5284586548805237,2.220217227935791,-2.1076836585998535
1764808544.032706,-1.133546934056282,2.3815578671604394,0.5950434298314153,1.3524277210235596,-0.2858896851539612,2.2910428047180176,,,,,,
1764808544.035802,,,,,,,0.4430428743362427,-0.08524242043495178,-0.05005565285682678,-0.5135880708694458,2.0800254344940186,-2.040870428085327
1764808544.042758,-1.4763579164415597,2.0651912395864724,0.9649510934568941,1.213883399963379,-0.3125409185886383,2.1776301860809326,,,,,,
1764808544.045834,,,,,,,0.4380429983139038,-0.1116582453250885,-0.12437772750854492,-0.45315316319465637,1.9377031326293945,-1.9299627542495728
1764808544.05281,-1.8464643175095319,1.9597201098114252,1.188736029575765,1.0723347663879395,-0.2966543734073639,2.012079954147339,,,,,,
1764808544.055863,,,,,,,0.4452900290489197,-0.14206469058990479,-0.16441881656646729,-0.4181211292743683,1.787642240524292,-1.7832289934158325
1764808544.062863,-2.2889213767781853,1.8707208068877457,1.2430557949148118,0.9042476415634155,-0.249060720205307,1.7838691473007202,,,,,,
1764808544.065893,,,,,,,0.47751617431640625,-0.20660758018493652,-0.19654086232185364,-0.43442502617836,1.5823911428451538,-1.6344788074493408
1764808544.072915,-2.2515181133180855,1.96159467151165,1.2952864790201186,0.7358109951019287,-0.23976761102676392,1.522986650466919,,,,,,
1764808544.075923,,,,,,,0.5231807231903076,-0.2581599950790405,-0.19915708899497986,-0.41997817158699036,1.3356117010116577,-1.4274581670761108
1764808544.082967,-2.018846837040782,2.015358994925022,1.4411631228111683,0.5637319087982178,-0.20604677498340607,1.2377750873565674,,,,,,
1764808544.085953,,,,,,,0.5138999819755554,-0.28468555212020874,-0.2756684720516205,-0.3857259154319763,1.1207971572875977,-1.3062076568603516
1764808544.093019,-1.709736756466329,2.031791074287891,1.8140635385118424,0.4463469386100769,-0.296067476272583,0.9582332372665405,,,,,,
1764808544.095983,,,,,,,0.475866436958313,-0.24703466892242432,-0.28565481305122375,-0.3438493013381958,0.910874605178833,-1.1298861503601074
1764808544.103071,-1.528198870576918,2.8373487475156782,1.9403167595528066,0.40964487195014954,-0.3785749673843384,0.806039571762085,,,,,,
1764808544.106013,,,,,,,0.4870646595954895,-0.2041282057762146,-0.24355372786521912,-0.3918350040912628,0.7186686396598816,-0.9160566329956055
1764808544.113123,-1.679870610512793,2.817955480259657,2.086732624787092,0.3608086407184601,-0.3072086572647095,0.6830551028251648,,,,,,
1764808544.116044,,,,,,,0.4563777446746826,-0.26199644804000854,-0.26106345653533936,-0.45688486099243164,0.5757767558097839,-0.733701229095459
1764808544.123176,-1.8512188185602425,2.104836436754465,2.408941987039894,0.291110634803772,-0.24659614264965057,0.5208007097244263,,,,,,
1764808544.126074,,,,,,,0.4130328893661499,-0.2761436700820923,-0.3052350580692291,-0.37512555718421936,0.432351678609848,-0.5268315076828003
1764808544.133228,-1.9959391319230197,1.8834207139849661,2.5976012492418286,0.19998390972614288,-0.19417794048786163,0.3169693052768707,,,,,,
1764808544.136104,,,,,,,0.3968132734298706,-0.20448940992355347,-0.3564814329147339,-0.18803077936172485,0.31099995970726013,-0.2853855788707733
1764808544.14328,-2.2942811502456664,1.9889310067266224,2.5846318775534627,0.09385211020708084,-0.08443792164325714,0.09727980196475983,,,,,,
1764808544.146134,,,,,,,0.40033119916915894,-0.2010873258113861,-0.39961278438568115,-0.05259948596358299,0.1638757437467575,-0.04376396909356117
1764808544.153332,-2.625324537947774,1.929214496910572,2.5112872398793695,-0.01668637990951538,0.0005454097408801317,-0.1456468254327774,,,,,,
1764808544.156164,,,,,,,0.43254566192626953,-0.27977845072746277,-0.40414702892303467,0.019107194617390633,-0.05001683533191681,0.22360993921756744
1764808544.163383,-2.710903803294897,2.030904354581237,2.353664920976013,-0.11908910423517227,0.06036072224378586,-0.390908807516098,,,,,,
1764808544.166194,,,,,,,0.4685605764389038,-0.332364946603775,-0.392640084028244,0.07708714157342911,-0.27403849363327026,0.4731203019618988
