timestamp,phone_accel_x,phone_accel_y,phone_accel_z,phone_gyro_x,phone_gyro_y,phone_gyro_z,watch_accel_x,watch_accel_y,watch_accel_z,watch_gyro_x,watch_gyro_y,watch_gyro_z
1764808588.23471,-0.14824468809664249,0.2653039643347263,0.040512043130397794,0.07638108730316162,-0.01525966264307499,0.027827251702547073,,,,,,
1764808588.238424,,,,,,,0.029544353485107422,-0.025819510221481323,0.011013388633728027,-0.04098716378211975,0.052429378032684326,-0.08138052374124527
1764808588.244763,-0.157367321228981,0.22108722146749496,0.0547112488746643,0.0723051205277443,-0.02543932944536209,0.034571703523397446,,,,,,
1764808588.248454,,,,,,,0.030138671398162842,-0.017866402864456177,0.007887184619903564,-0.03425762429833412,0.043632954359054565,-0.08099383115768433
1764808588.254815,-0.20050912834107876,0.21860008082687854,0.06854344793744385,0.06923151761293411,-0.03575172647833824,0.03424179553985596,,,,,,
1764808588.258484,,,,,,,0.034679114818573,-0.02332267165184021,0.0028486251831054688,-0.022102277725934982,0.0301767997443676,-0.07483354210853577
1764808588.264868,-0.22545184641778468,0.22103578354120254,0.05619834562726318,0.06438376754522324,-0.039808254688978195,0.03220048174262047,,,,,,
1764808588.268514,,,,,,,0.03697633743286133,-0.04261830449104309,-0.0001061558723449707,-0.035299573093652725,0.015779219567775726,-0.09328977763652802
1764808588.27492,-0.2376420504271984,0.19188567690253255,0.050930561292171474,0.052180029451847076,-0.045483119785785675,0.02918938174843788,,,,,,
1764808588.278544,,,,,,,0.03129541873931885,-0.04356113076210022,0.003777921898290515,-0.05315021798014641,0.0073969196528196335,-0.09653357416391373
1764808588.284972,-0.21874182738512754,0.1327583651512861,0.13081950604319573,0.045068323612213135,-0.06051266938447952,0.02400367520749569,,,,,,
1764808588.288574,,,,,,,0.025158226490020752,-0.03837496042251587,0.005988180637359619,-0.05617743358016014,0.004280488938093185,-0.07629700750112534
1764808588.295024,-0.21997809118181466,0.08452771046757697,0.13872808721065522,0.04379783198237419,-0.07847264409065247,0.01626184582710266,,,,,,
1764808588.298604,,,,,,,0.02239888906478882,-0.045203596353530884,0.004565119743347168,-0.0676964521408081,0.004880765452980995,-0.07307851314544678
1764808588.305077,-0.20229601175785064,0.06663023472726344,0.11905892562270164,0.04016794264316559,-0.09488170593976974,0.011072143912315369,,,,,,
1764808588.308634,,,,,,,0.015360772609710693,-0.05330079793930054,0.0029994845390319824,-0.08844593912363052,0.003459702245891094,-0.07336053997278214
1764808588.31513,-0.20178367832154034,0.056145665591955184,0.12558218991160391,0.039475735276937485,-0.10403462499380112,0.0034940566401928663,,,,,,
1764808588.318664,,,,,,,0.013289690017700195,-0.05989828705787659,0.004446506500244141,-0.10856141149997711,-0.0009464975446462631,-0.06840652972459793
1764808588.325181,-0.2141051074951887,-0.0014297405421733855,0.12631401131749154,0.03452279046177864,-0.10710950940847397,-0.007170305587351322,,,,,,
1764808588.328693,,,,,,,0.010717988014221191,-0.05529859662055969,0.003844320774078369,-0.13106513023376465,0.0044999332167208195,-0.05402439832687378
1764808588.335233,-0.23670389279425144,-0.05530220050513744,0.167241138054803,0.023578861728310585,-0.11667416989803314,-0.020610321313142776,,,,,,
1764808588.338725,,,,,,,0.005742132663726807,-0.048494935035705566,-0.0009524822235107422,-0.14430546760559082,0.012624971568584442,-0.037896424531936646
1764808588.345286,-0.2360474747121334,-0.04954641345739364,0.20944478753395376,0.00916530005633831,-0.12843789160251617,-0.033963147550821304,,,,,,
1764808588.348755,,,,,,,0.009676694869995117,-0.0478246808052063,-0.007422447204589844,-0.14962299168109894,0.0068925172090530396,-0.02247672528028488
1764808588.355338,-0.20161708958297966,-0.027825580036640166,0.19331775553226468,-0.0008906875737011433,-0.14386245608329773,-0.04751906543970108,,,,,,
1764808588.358785,,,,,,,0.01725482940673828,-0.047554582357406616,-0.012280702590942383,-0.15321709215641022,-0.007906935177743435,-0.010814541950821877
1764808588.365391,-0.17338146744072436,-0.031683424508571624,0.1665782171666622,-0.014289317652583122,-0.15342214703559875,-0.0568917952477932,,,,,,
1764808588.368815,,,,,,,0.017790555953979492,-0.041385650634765625,-0.010080933570861816,-0.15251560509204865,-0.019203266128897667,0.005283734295517206
1764808588.375443,-0.1452276783630252,-0.03856266262829303,0.1845475890994072,-0.023684900254011154,-0.1585368514060974,-0.06272991746664047,,,,,,
1764808588.378845,,,,,,,0.016239941120147705,-0.040428757667541504,-0.01202392578125,-0.14607025682926178,-0.018720168620347977,0.028252366930246353
1764808588.385496,-0.1386848325908184,-0.015157821643352507,0.20071429552435874,-0.02866820991039276,-0.15795788168907166,-0.06562210619449615,,,,,,
1764808588.388875,,,,,,,0.01216799020767212,-0.04392331838607788,-0.010913372039794922,-0.15023863315582275,-0.017916426062583923,0.03998066484928131
1764808588.395547,-0.16672639346569776,0.01981412301659584,0.2157516691258177,-0.03519907966256142,-0.14843867719173431,-0.07054043561220169,,,,,,
1764808588.398905,,,,,,,0.01381915807723999,-0.043564438819885254,-0.013292670249938965,-0.14396139979362488,-0.0239865705370903,0.05440933629870415
1764808588.405599,-0.21784955472052095,0.012459084078669547,0.21599727791734039,-0.03924362733960152,-0.12938441336154938,-0.07779831439256668,,,,,,
1764808588.408935,,,,,,,0.015079855918884277,-0.044989705085754395,-0.018619179725646973,-0.133512482047081,-0.03107910044491291,0.06254369020462036
1764808588.415653,-0.3064747636348009,-0.03514963931441307,0.2253904716193676,-0.04706959426403046,-0.1045064926147461,-0.08852685987949371,,,,,,
1764808588.418965,,,,,,,0.008513867855072021,-0.037855952978134155,-0.018770337104797363,-0.12221649289131165,-0.028084641322493553,0.07132986932992935
1764808588.425704,-0.29797698440253734,-0.10157704494595526,0.2744143225073814,-0.05485198274254799,-0.08005446940660477,-0.09783180803060532,,,,,,
1764808588.428995,,,,,,,-0.0002073049545288086,-0.024577587842941284,-0.0200040340423584,-0.09765415638685226,-0.022809453308582306,0.08552823960781097
1764808588.435756,-0.29620442177206274,-0.14766367333829403,0.311450871546939,-0.0636095181107521,-0.060931917279958725,-0.10418025404214859,,,,,,
1764808588.439025,,,,,,,-0.005962550640106201,-0.02120274305343628,-0.021505117416381836,-0.0675053745508194,-0.015252999030053616,0.10024166852235794
1764808588.445809,-0.3036149902895093,-0.18501929826438426,0.2751741278987378,-0.06909219175577164,-0.03724440559744835,-0.10566838085651398,,,,,,
1764808588.449055,,,,,,,-0.010426640510559082,-0.01901528239250183,-0.023145556449890137,-0.030309267342090607,-0.011378365568816662,0.11725980043411255
1764808588.455861,-0.28949323369562624,-0.18839549669921396,0.2264752711813897,-0.08239654451608658,-0.00659222062677145,-0.10793393105268478,,,,,,
1764808588.459085,,,,,,,-0.010107040405273438,-0.01776537299156189,-0.02351057529449463,0.007426712196320295,-0.013823946006596088,0.13776075839996338
1764808588.465914,-0.2556122991427779,-0.17895955983400344,0.19109766832999883,-0.09527234733104706,0.031496595591306686,-0.11390792578458786,,,,,,
1764808588.469116,,,,,,,-0.005332291126251221,-0.024795472621917725,-0.025286197662353516,0.036875683814287186,-0.019782237708568573,0.15289123356342316
1764808588.475966,-0.22961305775046348,-0.16283084733188152,0.1458861422717571,-0.11358290910720825,0.06295278668403625,-0.12054266035556793,,,,,,
1764808588.479146,,,,,,,0.0020278096199035645,-0.038959652185440063,-0.027232050895690918,0.032136768102645874,-0.03277766332030296,0.15570499002933502
1764808588.486018,-0.1889966774627566,-0.14608546423614024,0.1610100616455078,-0.14187829196453094,0.06890210509300232,-0.132414311170578,,,,,,
1764808588.489176,,,,,,,0.005764663219451904,-0.03622680902481079,-0.022566914558410645,0.003803665516898036,-0.045723289251327515,0.17077554762363434
1764808588.49607,-0.13875322165191173,-0.15112053579390047,0.1992249337494373,-0.16399984061717987,0.054631028324365616,-0.14550001919269562,,,,,,
1764808588.499206,,,,,,,0.010378241539001465,-0.031352996826171875,-0.016145050525665283,-0.01779746264219284,-0.06445570290088654,0.20064343512058258
1764808588.506122,-0.11646306391060351,-0.12521101851165295,0.1675684703130275,-0.17765864729881287,0.030965294688940048,-0.16423870623111725,,,,,,
1764808588.509236,,,,,,,0.011249065399169922,-0.03186202049255371,-0.011123239994049072,-0.05316850543022156,-0.07728148251771927,0.2148013412952423
1764808588.516176,-0.03901391352713108,-0.06258768133819102,0.09029350745268165,-0.183797225356102,-0.00030820618849247694,-0.1790086030960083,,,,,,
1764808588.519266,,,,,,,0.004274904727935791,-0.030398398637771606,-0.0031270983163267374,-0.08735930919647217,-0.08455990254878998,0.23028215765953064
1764808588.526227,0.05913198792636394,-0.03170329825282096,0.06345445423536002,-0.18996238708496094,-0.03429432213306427,-0.19290509819984436,,,,,,
1764808588.529296,,,,,,,0.0001308917999267578,-0.03206166625022888,0.005887627601623535,-0.10709839314222336,-0.0875205397605896,0.2543584704399109
1764808588.536279,0.10958908648788929,-0.04527531200945377,0.051165612157061696,-0.19296802580356598,-0.06503491848707199,-0.20704540610313416,,,,,,
1764808588.539326,,,,,,,-0.001556396484375,-0.028006017208099365,0.004690408706665039,-0.11729219555854797,-0.08970939368009567,0.2670198082923889
1764808588.546332,0.1206011866286397,-0.0621358459174633,0.006198270118236542,-0.2015240490436554,-0.0913652703166008,-0.22004923224449158,,,,,,
1764808588.549356,,,,,,,-0.0021076202392578125,-0.017093926668167114,0.0037206411361694336,-0.12416794896125793,-0.09419441968202591,0.28232496976852417
1764808588.556384,0.11651274827122687,-0.052414077848196024,0.01901442400626838,-0.21095456182956696,-0.11481627076864243,-0.2297753542661667,,,,,,
1764808588.559386,,,,,,,-0.000939488410949707,-0.004097074270248413,0.004404425621032715,-0.11923044919967651,-0.09679446369409561,0.3052598536014557
1764808588.566437,0.09491466444730758,-0.07649111900627613,0.02282791787981987,-0.21787875890731812,-0.12453795224428177,-0.23941537737846375,,,,,,
1764808588.569416,,,,,,,-0.002096116542816162,0.006678909063339233,0.0030921106226742268,-0.10699854791164398,-0.09513984620571136,0.32214564085006714
1764808588.576489,0.05067775557488203,-0.06309446181654929,-0.02759768956489861,-0.22642825543880463,-0.11861345916986465,-0.24507509171962738,,,,,,
1764808588.579446,,,,,,,-0.003505110740661621,0.00816914439201355,0.0037804851308465004,-0.1031995341181755,-0.08528215438127518,0.3318992555141449
1764808588.586541,0.02651128256767988,-0.0036240357160568235,-0.04563486603684723,-0.23649047315120697,-0.11044634133577347,-0.2507406771183014,,,,,,
1764808588.589476,,,,,,,-0.0004125833511352539,0.007173299789428711,0.006179451942443848,-0.10958126932382584,-0.08064532279968262,0.3323701024055481
1764808588.596593,0.038055882149934765,0.039541152271628376,-0.02542904028892517,-0.23734214901924133,-0.10431867837905884,-0.2552984058856964,,,,,,
1764808588.599507,,,,,,,0.006638705730438232,0.013636350631713867,0.009165287017822266,-0.10516975820064545,-0.08505019545555115,0.3360651731491089
1764808588.606645,0.030720132434368132,0.12712649674415588,-0.025669863307476042,-0.22488805651664734,-0.10192982852458954,-0.2547242343425751,,,,,,
1764808588.609537,,,,,,,0.012200534343719482,0.023405611515045166,0.009266555309295654,-0.0872059315443039,-0.09629379212856293,0.3344603478908539
1764808588.616699,-0.0032888124123215674,0.1241319911032915,-0.08231821772456169,-0.20701159536838531,-0.08704275637865067,-0.24717390537261963,,,,,,
1764808588.619567,,,,,,,0.005927026271820068,0.024205774068832397,0.009160041809082031,-0.0638342872262001,-0.09581708908081055,0.3323967456817627
1764808588.62675,-0.054237201622128486,0.08611234931051731,-0.10784085458107293,-0.19910258054733276,-0.0556323267519474,-0.24531707167625427,,,,,,
1764808588.629597,,,,,,,-0.0078105926513671875,0.020527660846710205,0.010932326316833496,-0.05799530819058418,-0.07754567265510559,0.31563159823417664
1764808588.636803,-0.08369447451382875,-0.015106383717060088,-0.09802315185666084,-0.19262823462486267,-0.0122704291716218,-0.24478010833263397,,,,,,
1764808588.639627,,,,,,,-0.021453440189361572,0.030753254890441895,0.014408468268811703,-0.0349264033138752,-0.05785931274294853,0.31110164523124695
1764808588.646855,-0.09247311651408671,-0.11143383757174015,-0.07792502426691353,-0.1832357943058014,0.03311436250805855,-0.24675004184246063,,,,,,
1764808588.649657,,,,,,,-0.02915501594543457,0.044940829277038574,0.015964210033416748,0.006427164655178785,-0.02505130134522915,0.31376615166664124
1764808588.656908,-0.08632979145348071,-0.14396715690791606,-0.07322546827383339,-0.17205701768398285,0.08176320791244507,-0.24156202375888824,,,,,,
1764808588.659687,,,,,,,-0.028885722160339355,0.0548916757106781,0.014576018787920475,0.062284763902425766,0.021299950778484344,0.30947011709213257
1764808588.66696,-0.03235124076753854,0.02087853737771511,-0.008843889256194233,-0.1521480232477188,0.14001800119876862,-0.23327374458312988,,,,,,
1764808588.669717,,,,,,,-0.018881380558013916,0.055736690759658813,0.0010523200035095215,0.12319391965866089,0.02910754084587097,0.3014984726905823
1764808588.677012,0.051315468956530094,0.1386199506610632,0.006711480337381362,-0.1269489824771881,0.19974003732204437,-0.21901226043701172,,,,,,
1764808588.679747,,,,,,,-0.005918979644775391,0.06204572319984436,-0.015448390506207943,0.19790208339691162,0.026598043739795685,0.29839590191841125
1764808588.687064,0.11012041688561439,0.0652554392427206,-0.013065233278274536,-0.11717119812965393,0.2414904087781906,-0.19478975236415863,,,,,,
1764808588.689777,,,,,,,-0.006893575191497803,0.06789097189903259,-0.027532517910003662,0.2977815568447113,0.03392413631081581,0.30059006810188293
1764808588.697116,0.1205789747968316,-0.09782616797983645,-0.0025624708991497753,-0.12148290127515793,0.28062424063682556,-0.17249426245689392,,,,,,
1764808588.699807,,,,,,,-0.015025317668914795,0.06980928778648376,-0.031186582520604134,0.3964444100856781,0.03783551976084709,0.3008093237876892
1764808588.70717,0.10630816512107849,-0.20075871918797492,-0.043086350597813725,-0.12613090872764587,0.34447458386421204,-0.15911667048931122,,,,,,
1764808588.709837,,,,,,,-0.02225208282470703,0.06107521057128906,-0.02337116003036499,0.45863455533981323,0.04461832344532013,0.284350723028183
1764808588.717221,0.09026742316335438,-0.21943945426046846,-0.08490538467355072,-0.12483640015125275,0.42026999592781067,-0.15319623053073883,,,,,,
1764808588.719867,,,,,,,-0.03057539463043213,0.053180843591690063,-0.012351750396192074,0.4903910458087921,0.05708644539117813,0.2806185781955719
1764808588.727273,0.05067454070448875,-0.23335165975689887,-0.09808628022074699,-0.115009605884552,0.4794590175151825,-0.15758512914180756,,,,,,
1764808588.729898,,,,,,,-0.035620689392089844,0.0483877956867218,-0.010104238986968994,0.5178016424179077,0.06867119669914246,0.29633814096450806
1764808588.737325,0.03787847975641489,-0.23644494959712026,-0.1414567815221846,-0.1101100817322731,0.5187317728996277,-0.1626644730567932,,,,,,
1764808588.739928,,,,,,,-0.0372614860534668,0.043570488691329956,-0.006470497697591782,0.5279787182807922,0.07573283463716507,0.29970571398735046
1764808588.747378,0.06534107169955969,-0.27041268565058707,-0.19072715451717376,-0.11846974492073059,0.5456661581993103,-0.16701021790504456,,,,,,
1764808588.749958,,,,,,,-0.0392339825630188,0.04024970531463623,-0.002448856830596924,0.5150975584983826,0.08122853189706802,0.3014085590839386
1764808588.757431,0.16296119571328163,-0.3149187668532133,-0.21476517883911728,-0.12772652506828308,0.5723764300346375,-0.1803131252527237,,,,,,
1764808588.759988,,,,,,,-0.03964090347290039,0.03386169672012329,0.0037262458354234695,0.4898107945919037,0.0831499993801117,0.3165246248245239
1764808588.767483,0.2909448938086629,-0.337351547935605,-0.26092355729341504,-0.13081605732440948,0.5842677354812622,-0.1956699788570404,,,,,,
1764808588.770018,,,,,,,-0.037599265575408936,0.03297370672225952,0.009508669376373291,0.4602672755718231,0.08652449399232864,0.32972779870033264
1764808588.777535,0.42975116082206366,-0.2702928586632013,-0.3379368735428899,-0.12687063217163086,0.572748064994812,-0.20886066555976868,,,,,,
1764808588.780048,,,,,,,-0.03981107473373413,0.038652241230010986,0.009222390130162239,0.4438760280609131,0.08946116268634796,0.3427483141422272
1764808588.787587,0.5642017168439925,-0.19300094466805456,-0.4174748859643936,-0.11639641970396042,0.5353437066078186,-0.21686959266662598,,,,,,
1764808588.790078,,,,,,,-0.04311656951904297,0.04852226376533508,0.012792527675628662,0.43619123101234436,0.09030724316835403,0.36173346638679504
1764808588.797639,0.6721029963754117,-0.22903087394833563,-0.49382732715234157,-0.1065475195646286,0.4859561622142792,-0.22280816733837128,,,,,,
1764808588.800108,,,,,,,-0.046887993812561035,0.06142643094062805,0.0167537909001112,0.4327666461467743,0.09090033173561096,0.37516024708747864
1764808588.807693,0.7536955301739275,-0.27962767324149607,-0.5522935446463525,-0.10169773548841476,0.43468359112739563,-0.22132571041584015,,,,,,
1764808588.810138,,,,,,,-0.04987591505050659,0.07474470138549805,0.020904183387756348,0.4252717196941376,0.0854395180940628,0.37793368101119995
1764808588.817744,0.7931311762444675,-0.30038170745670795,-0.5954690348323434,-0.10165033489465714,0.38688623905181885,-0.22208552062511444,,,,,,
1764808588.820168,,,,,,,-0.053478360176086426,0.08621728420257568,0.023382363840937614,0.41098400950431824,0.08110282570123672,0.3792274296283722
1764808588.827796,0.791289347770065,-0.3290630275398493,-0.6815326496303081,-0.10385257005691528,0.35651299357414246,-0.23059140145778656,,,,,,
1764808588.830198,,,,,,,-0.05664265155792236,0.09166136384010315,0.027595341205596924,0.4006293714046478,0.07800371199846268,0.377410888671875
1764808588.837848,0.780875213522464,-0.37350831846594806,-0.7982042417250573,-0.11017438024282455,0.347724586725235,-0.2365206629037857,,,,,,
1764808588.840228,,,,,,,-0.05992621183395386,0.09313952922821045,0.03096074052155018,0.3715065121650696,0.07440204918384552,0.3659997880458832
1764808588.847901,0.7790684563614427,-0.3528635898441076,-0.9073252723097801,-0.119332455098629,0.3563191294670105,-0.23409239947795868,,,,,,
1764808588.850258,,,,,,,-0.06327688694000244,0.10467979311943054,0.03952854871749878,0.32265350222587585,0.07744364440441132,0.3497947156429291
1764808588.857954,0.7923613609157503,-0.30685178025364873,-0.9815009539805352,-0.12181612104177475,0.3713074028491974,-0.23236747086048126,,,,,,
1764808588.860289,,,,,,,-0.06380468606948853,0.11691197752952576,0.045600295066833496,0.25767526030540466,0.0780969187617302,0.3506637513637543
1764808588.868006,0.7924063691012561,-0.21211539498269558,-1.1156124873064457,-0.11566244065761566,0.38201025128364563,-0.22939327359199524,,,,,,
1764808588.870319,,,,,,,-0.06337189674377441,0.1312570571899414,0.050882577896118164,0.16642896831035614,0.0769437700510025,0.32542818784713745
1764808588.878058,0.8570920456320047,-0.0972054057329893,-1.2308053851507603,-0.10110214352607727,0.3692252039909363,-0.2173725664615631,,,,,,
1764808588.880349,,,,,,,-0.0673595666885376,0.15317776799201965,0.05610239505767822,0.06395900249481201,0.06704346835613251,0.28961846232414246
1764808588.88811,1.0751578734517098,-0.017895137652754783,-1.2545746755339204,-0.06709568202495575,0.3209802210330963,-0.19158560037612915,,,,,,
1764808588.890379,,,,,,,-0.07251644134521484,0.1757279932498932,0.07074868679046631,-0.05153616890311241,0.06503864377737045,0.24211138486862183
1764808588.898162,1.285285894009471,0.03247486714720726,-1.3173967501498758,-0.00891120359301567,0.2615387439727783,-0.1563730090856552,,,,,,
1764808588.900409,,,,,,,-0.07338505983352661,0.1986198127269745,0.08886247873306274,-0.1367686539888382,0.06363009661436081,0.17797134816646576
1764808588.908216,1.4536805129483341,0.02504734749495983,-1.418736333078146,0.056088414043188095,0.2053380310535431,-0.11862353980541229,,,,,,
1764808588.910439,,,,,,,-0.07755142450332642,0.2150517702102661,0.09470194578170776,-0.2017921358346939,0.07328804582357407,0.10003048181533813
1764808588.918267,1.5264859291791915,0.011366028144955635,-1.470407045213133,0.11220654100179672,0.17126049101352692,-0.07819834351539612,,,,,,
1764808588.920469,,,,,,,-0.08733922243118286,0.23894581198692322,0.09668999910354614,-0.2579419016838074,0.09700056910514832,0.024051297456026077
1764808588.928319,1.5469474101886151,-0.010948679515719413,-1.4880116754867136,0.16634397208690643,0.17603856325149536,-0.0315001904964447,,,,,,
1764808588.930499,,,,,,,-0.09654414653778076,0.26380690932273865,0.09057122468948364,-0.29365915060043335,0.1223386824131012,-0.053231239318847656
1764808588.938371,1.4874272997274993,-0.012428688940405845,-1.5674971540033817,0.22729840874671936,0.21788160502910614,0.027944762259721756,,,,,,
1764808588.940529,,,,,,,-0.10059815645217896,0.29005536437034607,0.0786428451538086,-0.27698734402656555,0.1512582153081894,-0.13172052800655365
1764808588.948424,1.4071788740143178,-0.0584060117393732,-1.6507155354380607,0.2789553701877594,0.28046149015426636,0.10128233581781387,,,,,,
1764808588.950559,,,,,,,-0.1034085750579834,0.3117941617965698,0.0654948353767395,-0.2226431667804718,0.17325060069561005,-0.20777295529842377
1764808588.958477,1.3763070581495762,-0.08716039705872536,-1.6486508579932153,0.31496238708496094,0.3523860275745392,0.17611344158649445,,,,,,
1764808588.960589,,,,,,,-0.10564708709716797,0.33273759484291077,0.05838441848754883,-0.17214709520339966,0.19697484374046326,-0.30448004603385925
1764808588.968528,1.387794520717114,-0.1124813007980585,-1.611843514599651,0.3522602915763855,0.41202613711357117,0.24713395535945892,,,,,,
1764808588.970619,,,,,,,-0.11028379201889038,0.3546392321586609,0.06040245294570923,-0.10481520742177963,0.22775965929031372,-0.40449586510658264
1764808588.978581,1.4503303257375955,-0.12012743163704871,-1.6495545288346707,0.4043293595314026,0.4572790861129761,0.31898418068885803,,,,,,
1764808588.980649,,,,,,,-0.1078914999961853,0.37206414341926575,0.06227511167526245,-0.011945238336920738,0.2496822625398636,-0.4894804358482361
1764808588.988633,1.5621062547452746,-0.0057172086030244824,-1.741115352809429,0.47551411390304565,0.5055394768714905,0.40668532252311707,,,,,,
1764808588.99068,,,,,,,-0.10383540391921997,0.38149744272232056,0.07150721549987793,0.08708547055721283,0.2788052558898926,-0.5792660117149353
1764808588.998685,1.7049834244593978,0.1345318045645952,-1.8261831615030764,0.5518164038658142,0.5565671920776367,0.5048092007637024,,,,,,
1764808589.00071,,,,,,,-0.10307347774505615,0.38227149844169617,0.08301126956939697,0.12902063131332397,0.3223884105682373,-0.6742481589317322
1764808589.008739,1.7753768111124633,0.2358428920507431,-1.8206009774565695,0.6116051077842712,0.6154831051826477,0.5942962765693665,,,,,,
1764808589.01074,,,,,,,-0.0929000973701477,0.3686981797218323,0.09457778930664062,0.10934333503246307,0.3595275282859802,-0.7569882869720459
1764808589.01879,1.7165449751764534,0.37980186565220353,-1.7975240532517431,0.6691488027572632,0.6781699657440186,0.6594606041908264,,,,,,
1764808589.02077,,,,,,,-0.06989246606826782,0.3395732045173645,0.10676777362823486,0.05204632505774498,0.3847689926624298,-0.8420217037200928
1764808589.028842,1.6460836378537118,0.5366752658843994,-1.806622867117077,0.7447998523712158,0.7220665216445923,0.7175464034080505,,,,,,
1764808589.0308,,,,,,,-0.048702239990234375,0.32691627740859985,0.11230409145355225,-0.012936137616634369,0.4029053747653961,-0.946372926235199
1764808589.038894,1.7215081505417822,0.6508914276510477,-1.7721243851877748,0.8357539772987366,0.7263432741165161,0.7861539721488953,,,,,,
1764808589.04083,,,,,,,-0.03966563940048218,0.3427550196647644,0.1132354736328125,-0.029156239703297615,0.41773200035095215,-1.0525802373886108
1764808589.048948,1.871373425577581,0.6663432638049125,-1.621372536575794,0.9276753664016724,0.6934689283370972,0.8764495253562927,,,,,,
1764808589.050859,,,,,,,-0.04370301961898804,0.3705255389213562,0.10889232158660889,0.00839006993919611,0.46418043971061707,-1.179379940032959
1764808589.059,2.040620277431607,0.6341828694343566,-1.4293196864128113,1.0068954229354858,0.633020281791687,0.9862233996391296,,,,,,
1764808589.060889,,,,,,,-0.05268549919128418,0.3937090039253235,0.10106933116912842,0.026116587221622467,0.5281120538711548,-1.3103415966033936
1764808589.069052,2.1071444214358923,0.6811795984089374,-1.2963503088593482,1.0788010358810425,0.5844565629959106,1.0928672552108765,,,,,,
1764808589.07092,,,,,,,-0.044708311557769775,0.4013833999633789,0.09789156913757324,0.018529508262872696,0.5899420976638794,-1.4467287063598633
1764808589.079105,2.108115020033717,0.7684609914988279,-1.2583388503730297,1.1509138345718384,0.5548304915428162,1.1906375885009766,,,,,,
1764808589.08095,,,,,,,-0.020539462566375732,0.394726425409317,0.0942070484161377,0.028971923515200615,0.6387892961502075,-1.5653924942016602
1764808589.089157,2.081721518626809,0.881858822619915,-1.3068331244289875,1.213444709777832,0.5451825261116028,1.280133605003357,,,,,,
1764808589.09098,,,,,,,0.011108636856079102,0.38807713985443115,0.10130393505096436,0.022091645747423172,0.6697631478309631,-1.6844731569290161
1764808589.099209,2.038211170463264,1.1200193439632653,-1.3510428530335425,1.2728086709976196,0.562023401260376,1.3658286333084106,,,,,,
1764808589.10101,,,,,,,0.034332871437072754,0.39583414793014526,0.12127280235290527,-0.0164351724088192,0.7059211730957031,-1.79171884059906
1764808589.109262,1.946730572117865,1.4042144712507725,-1.4908955603599547,1.3539986610412598,0.5991582274436951,1.459877371788025,,,,,,
1764808589.11104,,,,,,,0.05494356155395508,0.4023759067058563,0.13687777519226074,-0.024170590564608574,0.7415375113487244,-1.8896405696868896
1764808589.119314,1.8602578650623558,1.5569839432954786,-1.6331822168350218,1.4358346462249756,0.6304442286491394,1.5513782501220703,,,,,,
1764808589.121071,,,,,,,0.06764322519302368,0.3975781798362732,0.14331984519958496,-0.015135284513235092,0.7734245657920837,-2.002636432647705
1764808589.129366,1.8313845295384525,1.5844038651406764,-1.5893874987721441,1.509725570678711,0.6398284435272217,1.6408023834228516,,,,,,
1764808589.131101,,,,,,,0.07020533084869385,0.41084587574005127,0.14293324947357178,0.004013110883533955,0.8115975260734558,-2.1352434158325195
1764808589.139418,1.9371733469605446,1.4493933371484278,-1.436757727459073,1.576252818107605,0.6110746264457703,1.7456576824188232,,,,,,
1764808589.14113,,,,,,,0.06980305910110474,0.4371442198753357,0.13327908515930176,0.05614075809717178,0.8485336899757385,-2.2576029300689697
1764808589.149471,2.060550135782361,1.2674100455790758,-1.232310090625286,1.6210522651672363,0.5673987865447998,1.853951096534729,,,,,,
1764808589.15116,,,,,,,0.06757688522338867,0.4443932771682739,0.11838304996490479,0.08547388762235641,0.9000935554504395,-2.400320291519165
1764808589.159523,2.207497769805789,1.2569359978377819,-1.1391834786385298,1.6705254316329956,0.5466218590736389,1.9618759155273438,,,,,,
1764808589.161191,,,,,,,0.07113522291183472,0.4451678991317749,0.11925233155488968,0.07427191734313965,0.9617516398429871,-2.5440382957458496
1764808589.169575,2.351382509127259,1.407784730952978,-1.1754717665940522,1.7482905387878418,0.5472487807273865,2.0780680179595947,,,,,,
1764808589.171221,,,,,,,0.09248816967010498,0.4545222520828247,0.129347562789917,0.061677031219005585,1.0132408142089844,-2.6608688831329346
1764808589.179628,2.458160045325756,1.6041542752712965,-1.2550135053426026,1.829909086227417,0.5533088445663452,2.2015955448150635,,,,,,
1764808589.181251,,,,,,,0.11886203289031982,0.4599813222885132,0.13668178021907806,0.061784129589796066,1.0651365518569946,-2.767230749130249
1764808589.18968,2.4685282946050164,1.7619015357285737,-1.2410282346099615,1.9024602174758911,0.5647567510604858,2.3122735023498535,,,,,,
1764808589.191281,,,,,,,0.13399726152420044,0.46056902408599854,0.1355135440826416,0.0923905074596405,1.1341654062271118,-2.881298780441284
1764808589.199732,2.4100848734647036,1.8637047906458377,-1.198762625810504,1.9566094875335693,0.5638746023178101,2.421945333480835,,,,,,
1764808589.201311,,,,,,,0.15161752700805664,0.4660186767578125,0.13968157768249512,0.14845822751522064,1.2108585834503174,-3.013617515563965
1764808589.209784,2.373745732104778,2.0354127719163895,-1.086938254551217,2.014432907104492,0.5473624467849731,2.5453033447265625,,,,,,
1764808589.21134,,,,,,,0.18286752700805664,0.4979833960533142,0.1431264877319336,0.21590730547904968,1.2682392597198486,-3.1302435398101807
1764808589.219837,2.3182424560695885,2.2933073367774486,-1.0494008433174342,2.0819449424743652,0.5501471757888794,2.672595262527466,,,,,,
1764808589.22137,,,,,,,0.22412234544754028,0.5094586610794067,0.14586076140403748,0.25717729330062866,1.2894513607025146,-3.2578017711639404
1764808589.229889,2.204430198928714,2.523673843243718,-1.1049807647854089,2.1420226097106934,0.575650691986084,2.7834839820861816,,,,,,
1764808589.2314,,,,,,,0.25971710681915283,0.47825783491134644,0.15684626996517181,0.21531373262405396,1.3168894052505493,-3.396014928817749
1764808589.239941,2.083114434289932,2.6550848854392766,-1.113093636353314,2.19049072265625,0.6042985916137695,2.873140335083008,,,,,,
1764808589.241431,,,,,,,0.2844414710998535,0.44692832231521606,0.1838902235031128,0.12835204601287842,1.3598757982254028,-3.508927822113037
1764808589.249994,2.069483383822441,2.70610546310246,-1.147046905490011,2.249937057495117,0.6196463704109192,2.958540678024292,,,,,,
1764808589.251462,,,,,,,0.30419015884399414,0.44786715507507324,0.1976943165063858,0.07853681594133377,1.40799880027771,-3.613849401473999
1764808589.260046,2.215319841733575,2.7926462669581174,-1.1588852273218333,2.3096165657043457,0.6179091930389404,3.066153049468994,,,,,,
1764808589.261492,,,,,,,0.3158944249153137,0.47280365228652954,0.1967933028936386,0.028840523213148117,1.4714046716690063,-3.742967367172241
1764808589.270098,2.395826046487689,2.9619775822252032,-1.085475123196095,2.3551418781280518,0.5998590588569641,3.192866563796997,,,,,,
1764808589.271522,,,,,,,0.335239052772522,0.4986306428909302,0.1996966451406479,-0.011019542813301086,1.5295436382293701,-3.858299493789673
1764808589.280151,2.4999983686238525,3.148928140813112,-1.0385146345786749,2.3850605487823486,0.5664840936660767,3.32470965385437,,,,,,
1764808589.281552,,,,,,,0.37060731649398804,0.49538999795913696,0.19817863404750824,-0.011780867353081703,1.5586961507797241,-3.9505324363708496
1764808589.290203,2.535611533796787,3.280840118268132,-1.0809218438059092,2.4069111347198486,0.5312666296958923,3.4354522228240967,,,,,,
1764808589.291582,,,,,,,0.40093129873275757,0.48595941066741943,0.19504690170288086,0.006944350432604551,1.5933423042297363,-4.041652202606201
1764808589.300255,2.5901900962024924,3.3384032494425773,-1.1584084035903215,2.4260880947113037,0.5023912787437439,3.531590700149536,,,,,,
1764808589.301612,,,,,,,0.4220898449420929,0.4895227551460266,0.20328488945960999,-0.04957345500588417,1.6266571283340454,-4.1400651931762695
1764808589.310307,2.621286076211929,3.5038615226686,-1.1860013439148664,2.450772285461426,0.47139206528663635,3.6083791255950928,,,,,,
1764808589.311641,,,,,,,0.44253212213516235,0.4815792441368103,0.22517089545726776,-0.13628411293029785,1.6781480312347412,-4.216960430145264
1764808589.32036,2.6201702239245175,3.7622792346209284,-1.2284965236864984,2.5035107135772705,0.41747602820396423,3.6914303302764893,,,,,,
1764808589.321671,,,,,,,0.460382342338562,0.4579775929450989,0.2650465965270996,-0.22791582345962524,1.7428678274154663,-4.274703502655029
1764808589.330412,2.6106904479175803,4.013224418735504,-1.2860188844591378,2.575960159301758,0.35273510217666626,3.787566661834717,,,,,,
1764808589.331702,,,,,,,0.4716363847255707,0.442192018032074,0.28951406478881836,-0.33614322543144226,1.8073813915252686,-4.348590850830078
1764808589.340464,2.5785207011967897,4.260229925313592,-1.3668436487555502,2.6476194858551025,0.30123117566108704,3.8761017322540283,,,,,,
1764808589.341732,,,,,,,0.4813779592514038,0.4350048899650574,0.31699904799461365,-0.47533610463142395,1.9083585739135742,-4.419950008392334
1764808589.350517,2.4618343499243256,4.509757936106622,-1.487448634776473,2.7209506034851074,0.25984591245651245,3.930527448654175,,,,,,
1764808589.351762,,,,,,,0.4945637881755829,0.44085198640823364,0.34426212310791016,-0.5720277428627014,2.0198867321014404,-4.469202041625977
1764808589.360569,2.457986442324519,4.656417400838435,-1.571082903535664,2.799617290496826,0.18649232387542725,4.004113674163818,,,,,,
1764808589.361791,,,,,,,0.5224966406822205,0.465880811214447,0.35224831104278564,-0.6248005628585815,2.1189229488372803,-4.516450881958008
1764808589.370621,2.581118316474557,4.804784254010022,-1.4426812722891569,2.866353988647461,0.11692450940608978,4.11052942276001,,,,,,
1764808589.371822,,,,,,,0.5446205139160156,0.4811503291130066,0.33934149146080017,-0.5873429179191589,2.2174599170684814,-4.552857398986816
1764808589.380674,2.546006086561084,4.756908696374297,-1.2720111096337436,2.894631862640381,0.10211493819952011,4.2222514152526855,,,,,,
1764808589.381851,,,,,,,0.5491959452629089,0.47860050201416016,0.309029221534729,-0.4988533854484558,2.311281204223633,-4.5860209465026855
1764808589.390726,2.207481403192878,4.531815454135835,-1.1782763026207685,2.891024589538574,0.14980916678905487,4.288429260253906,,,,,,
1764808589.391883,,,,,,,0.550382137298584,0.46722179651260376,0.28601038455963135,-0.39922773838043213,2.4106435775756836,-4.590519428253174
1764808589.400778,1.7314637273669242,4.295684977315366,-1.1220751074492932,2.8779079914093018,0.2422538846731186,4.303413391113281,,,,,,
1764808589.401913,,,,,,,0.5623205304145813,0.4392211437225342,0.28235718607902527,-0.31375041604042053,2.4950366020202637,-4.577203273773193
1764808589.41083,1.3012117774158716,4.258282882899046,-1.2178081025421619,2.8809611797332764,0.3557591140270233,4.279621601104736,,,,,,
1764808589.411942,,,,,,,0.5853004455566406,0.4128299355506897,0.32382500171661377,-0.25544556975364685,2.5976712703704834,-4.584981441497803
1764808589.420883,1.1299983016639947,4.533406522719562,-1.4463877255916595,2.9128246307373047,0.436669260263443,4.2894182205200195,,,,,,
1764808589.421973,,,,,,,0.6135169267654419,0.4275084137916565,0.3654171824455261,-0.17463591694831848,2.673595428466797,-4.552755832672119
1764808589.430935,1.2269611308127641,4.981808754128218,-1.6123358281612394,2.952444314956665,0.4626001715660095,4.35408878326416,,,,,,
1764808589.432003,,,,,,,0.6486634612083435,0.39634013175964355,0.35743167996406555,-0.13500887155532837,2.7128992080688477,-4.537655353546143
1764808589.440987,1.2789999456077814,5.242760952994227,-1.566055138501525,2.9814391136169434,0.45695745944976807,4.417661666870117,,,,,,
1764808589.442033,,,,,,,0.6612703800201416,0.3080424666404724,0.3627948760986328,-0.18715578317642212,2.782963752746582,-4.539473533630371
1764808589.45104,1.1429513067394494,5.22912113469839,-1.3706015399843454,2.9950249195098877,0.4394823908805847,4.435366630554199,,,,,,
1764808589.452063,,,,,,,0.6628404855728149,0.24543380737304688,0.3661592900753021,-0.17553694546222687,2.8521370887756348,-4.4684271812438965
1764808589.461092,0.9240314924389124,5.04014170063138,-1.2209554606571793,2.9927985668182373,0.40293076634407043,4.4135284423828125,,,,,,
1764808589.462093,,,,,,,0.6705389022827148,0.22130310535430908,0.3450380265712738,-0.14923128485679626,2.893256664276123,-4.411196231842041
1764808589.471144,0.7080436399370431,4.876602997291088,-1.1307988043919206,2.9784932136535645,0.34881269931793213,4.367746353149414,,,,,,
1764808589.472123,,,,,,,0.676354169845581,0.21352285146713257,0.3440280258655548,-0.12455550581216812,2.938465118408203,-4.36931848526001
1764808589.481196,0.507658430236578,4.7922883450523015,-1.1131515040203928,2.955308675765991,0.27999910712242126,4.325061321258545,,,,,,
1764808589.482152,,,,,,,0.6857366561889648,0.19896000623703003,0.33907732367515564,-0.0754704475402832,2.9703972339630127,-4.310500144958496
1764808589.491249,0.3822223707973957,4.832652211883664,-1.0937506379798054,2.9287936687469482,0.21861593425273895,4.302867412567139,,,,,,
1764808589.492182,,,,,,,0.6983403563499451,0.19367152452468872,0.33000341057777405,-0.0022665406577289104,2.9880971908569336,-4.231687068939209
1764808589.501301,0.2663724703490734,4.967174664098024,-1.0672513381108641,2.894343852996826,0.21781422197818756,4.294343948364258,,,,,,
1764808589.502213,,,,,,,0.7083920240402222,0.1690348982810974,0.29287031292915344,0.03692241385579109,2.9728221893310547,-4.150283336639404
1764808589.511353,0.0011000701963901518,5.025541512870788,-1.0965572198331355,2.8388750553131104,0.2474304437637329,4.252686977386475,,,,,,
1764808589.512242,,,,,,,0.7164314985275269,0.08133882284164429,0.26559051871299744,-0.07768671959638596,2.9487924575805664,-4.079939842224121
1764808589.521406,-0.42458734831809997,4.913891402199864,-1.044957088716328,2.80104660987854,0.24126337468624115,4.165863037109375,,,,,,
1764808589.522274,,,,,,,0.724401593208313,0.007216095924377441,0.27760574221611023,-0.23443451523780823,2.9459054470062256,-3.9964942932128906
1764808589.531458,-0.6588567074418068,4.798480185429751,-0.9733639708846807,2.789605140686035,0.15993522107601166,4.077927589416504,,,,,,
1764808589.532304,,,,,,,0.7232627868652344,-0.013739466667175293,0.29636362195014954,-0.3235148787498474,2.966595411300659,-3.867217540740967
1764808589.54151,-0.6273755275070667,4.874270170429349,-0.8536825294494629,2.79904842376709,0.058534033596515656,3.9948689937591553,,,,,,
1764808589.542334,,,,,,,0.7097008228302002,-0.006123363971710205,0.3052549660205841,-0.4355965852737427,2.9788713455200195,-3.8332455158233643
1764808589.551562,-0.5886620582312345,5.162862071371078,-0.8639613468796015,2.819744825363159,-0.04031830281019211,3.914612054824829,,,,,,
1764808589.552364,,,,,,,0.7071216702461243,0.031544387340545654,0.3507695198059082,-0.5655372738838196,3.0549874305725098,-3.789830207824707
1764808589.561615,-0.5301034862786531,5.642377526184916,-0.9121528385967016,2.835759401321411,-0.127161905169487,3.8688199520111084,,,,,,
1764808589.562394,,,,,,,0.7392326593399048,0.04793351888656616,0.330035924911499,-0.5573534965515137,3.0695173740386963,-3.6778295040130615
1764808589.571667,-0.4083727110981941,6.0080795548141,-0.8574880592122673,2.815185308456421,-0.1840137392282486,3.8476362228393555,,,,,,
1764808589.572423,,,,,,,0.7701647281646729,0.027331769466400146,0.2847588062286377,-0.519148588180542,3.0539803504943848,-3.6256918907165527
1764808589.581719,-0.46477673536539077,5.893001223260164,-0.7618902348063886,2.758625030517578,-0.21080389618873596,3.8080239295959473,,,,,,
1764808589.582453,,,,,,,0.7538737058639526,0.03351205587387085,0.25186049938201904,-0.4426731467247009,3.0442559719085693,-3.5394909381866455
1764808589.591772,-0.8476520171135663,5.317970215496421,-0.7013140394210815,2.6833813190460205,-0.24416771531105042,3.72629451751709,,,,,,
1764808589.592484,,,,,,,0.7138605117797852,0.003388702869415283,0.22563672065734863,-0.40350526571273804,3.0011632442474365,-3.478076457977295
1764808589.601824,-1.3219079439640045,4.615260922324657,-0.6743393771253526,2.6144602298736572,-0.2372037023305893,3.608781337738037,,,,,,
1764808589.602514,,,,,,,0.6867159008979797,-0.03041362762451172,0.24487315118312836,-0.4755943715572357,2.9864983558654785,-3.4361157417297363
1764808589.611876,-1.5172043060928582,4.36760250479579,-0.9795318458646536,2.565328359603882,-0.20590277016162872,3.4988372325897217,,,,,,
1764808589.612544,,,,,,,0.685073733329773,-0.04930812120437622,0.23765897750854492,-0.522077739238739,2.969254970550537,-3.340399742126465
1764808589.621928,-1.5766811619341372,4.577772026407718,-1.0621208433546125,2.5085854530334473,-0.15385854244232178,3.4085824489593506,,,,,,
1764808589.622574,,,,,,,0.7031801342964172,-0.05164092779159546,0.21699845790863037,-0.6150645017623901,2.911231756210327,-3.3147976398468018
1764808589.631981,-1.564752823731303,4.897456400227546,-0.9045371028959751,2.456770658493042,-0.10179480910301208,3.347243309020996,,,,,,
1764808589.632604,,,,,,,0.7240992188453674,-0.013464033603668213,0.21907341480255127,-0.710711658000946,2.89497709274292,-3.2341949939727783
1764808589.642033,-1.4282973576277493,5.149592255431413,-0.7428314602017402,2.409172773361206,-0.07953646034002304,3.303318738937378,,,,,,
1764808589.642633,,,,,,,0.7377161383628845,-0.020783156156539917,0.172987163066864,-0.8214821815490723,2.8279242515563965,-3.1853034496307373
1764808589.652085,-1.2114455817729235,5.1558302730381484,-0.480395744779706,2.332761764526367,-0.11425688862800598,3.276864767074585,,,,,,
1764808589.652663,,,,,,,0.7320923805236816,-0.02114132046699524,0.1747458577156067,-0.8081059455871582,2.849853038787842,-3.087676525115967
1764808589.662138,-0.9733400054872036,4.958279409980774,-0.1653116312969476,2.261585235595703,-0.1632661074399948,3.257594585418701,,,,,,
1764808589.662694,,,,,,,0.6836093068122864,-0.0037737488746643066,0.1274932622909546,-0.7141488194465637,2.761512279510498,-3.0326690673828125
1764808589.67219,-0.8622235633015632,4.63882942943871,-0.08872866928875446,2.175553560256958,-0.2124198079109192,3.220348358154297,,,,,,
1764808589.672724,,,,,,,0.6364479660987854,-0.0026221871376037598,0.07751810550689697,-0.6869523525238037,2.7228145599365234,-3.0282461643218994
1764808589.682242,-0.9248831408321857,4.27933093162477,0.053151744472980496,2.0800275802612305,-0.2696932256221771,3.1635122299194336,,,,,,
1764808589.682755,,,,,,,0.6085078716278076,-0.012073636054992676,0.06513620167970657,-0.5946969389915466,2.6914069652557373,-2.9477624893188477
1764808589.692294,-1.0561989059597252,4.091004993030428,0.2857727518677711,1.9899595975875854,-0.2825925946235657,3.091830015182495,,,,,,
1764808589.692785,,,,,,,0.6175718903541565,0.009940028190612793,0.09701699018478394,-0.5356504321098328,2.5607500076293945,-2.9384939670562744
1764808589.702347,-1.1679516002222894,4.128605532628297,-0.0021942997404607013,1.9429851770401,-0.22074438631534576,3.0168745517730713,,,,,,
1764808589.702815,,,,,,,0.6430277824401855,0.042493224143981934,0.10019649565219879,-0.5259050130844116,2.4933769702911377,-2.842031240463257
1764808589.712399,-1.1401423867985605,4.479541369280219,-0.46441900796890256,1.8644847869873047,-0.14519686996936798,2.9490981101989746,,,,,,
1764808589.712845,,,,,,,0.6537277102470398,-0.03180807828903198,0.022532105445861816,-0.6326884627342224,2.3296923637390137,-2.7762351036071777
1764808589.722451,-1.189586508925259,4.354582864224911,-0.1762999852359295,1.7439764738082886,-0.1043865829706192,2.861102342605591,,,,,,
1764808589.722875,,,,,,,0.6508047580718994,-0.08409759402275085,0.039492636919021606,-0.799268364906311,2.281928300857544,-2.6939585208892822
1764808589.732504,-1.279101360155642,3.8037609995663164,0.1875754855532199,1.6569892168045044,-0.12187498807907104,2.763728141784668,,,,,,
1764808589.732904,,,,,,,0.6270193457603455,-0.10889062285423279,0.008655443787574768,-0.8451983332633972,2.183877468109131,-2.5388617515563965
1764808589.742556,-1.298389121210575,3.592143032711744,0.37486097518391903,1.5216060876846313,-0.15072926878929138,2.6398956775665283,,,,,,
1764808589.742934,,,,,,,0.6006245613098145,-0.11839722096920013,-0.041728317737579346,-0.9013287425041199,2.0516955852508545,-2.5248844623565674
1764808589.752608,-1.4642548061937093,3.2949574909478425,0.5907248359799385,1.4021227359771729,-0.19327329099178314,2.5056369304656982,,,,,,
1764808589.752964,,,,,,,0.5745137929916382,-0.04761256277561188,-0.01439046859741211,-0.7903566956520081,1.9972543716430664,-2.4030954837799072
1764808589.76266,-1.3746142827570438,3.4309120217919347,0.5375018529016524,1.315663456916809,-0.23558078706264496,2.3782200813293457,,,,,,
1764808589.762995,,,,,,,0.5698805451393127,-0.022068917751312256,-0.06659242510795593,-0.6140627861022949,1.8319109678268433,-2.294776201248169
1764808589.772713,-1.278444649812579,3.653947454717755,0.5383760784529149,1.2090636491775513,-0.22260180115699768,2.2500452995300293,,,,,,
1764808589.773025,,,,,,,0.5579612255096436,-0.06822001934051514,-0.11025041341781616,-0.5166105628013611,1.7452788352966309,-2.180138349533081
1764808589.782765,-1.332725690576434,3.4305765062272546,0.6881434460721909,1.1006698608398438,-0.22679895162582397,2.1241414546966553,,,,,,
1764808589.783055,,,,,,,0.5279940962791443,-0.14626555144786835,-0.1308078169822693,-0.42349788546562195,1.6248406171798706,-1.9957540035247803
1764808589.792817,-1.4916229978516697,3.090773473486304,0.9520938038408756,0.9912872910499573,-0.22470930218696594,1.9422687292099,,,,,,
1764808589.793086,,,,,,,0.5261886715888977,-0.18725766241550446,-0.14639556407928467,-0.35846322774887085,1.491072416305542,-1.837471604347229
1764808589.80287,-1.9057029806807637,2.8366408915072676,1.0315757752262056,0.8824505805969238,-0.15833081305027008,1.7192015647888184,,,,,,
1764808589.803116,,,,,,,0.5253347158432007,-0.18237625062465668,-0.16839811205863953,-0.29004886746406555,1.3722230195999146,-1.620012879371643
1764808589.812922,-2.150359878306091,2.905467174974084,1.156857667016983,0.785419762134552,-0.11944206058979034,1.4828301668167114,,,,,,
1764808589.813146,,,,,,,0.5305253267288208,-0.20665299892425537,-0.22143876552581787,-0.2458915263414383,1.2041561603546143,-1.4180948734283447
1764808589.822974,-2.1760453775741158,2.8785172087281943,1.44209733492136,0.7038607597351074,-0.14323391020298004,1.2483211755752563,,,,,,
1764808589.823176,,,,,,,0.525317370891571,-0.28274667263031006,-0.24603280425071716,-0.2425735592842102,1.0564937591552734,-1.187484860420227
1764808589.833026,-2.0708819985739884,2.804892585068941,1.579278631081432,0.6306387782096863,-0.1931958794593811,1.0034160614013672,,,,,,
1764808589.833205,,,,,,,0.5055356025695801,-0.34808018803596497,-0.2646152973175049,-0.23329989612102509,0.9144296646118164,-0.9539692997932434
1764808589.843079,-2.077986862143129,2.8240526280909775,1.6710170035801828,0.5518315434455872,-0.21496854722499847,0.7539209723472595,,,,,,
1764808589.843235,,,,,,,0.48754024505615234,-0.36036133766174316,-0.28346022963523865,-0.1524890959262848,0.7796132564544678,-0.6899818778038025
1764808589.853131,-2.1707202370285987,2.7757565069556236,1.8226133401922882,0.47174370288848877,-0.18022257089614868,0.49425604939460754,,,,,,
1764808589.853266,,,,,,,0.4758983254432678,-0.3423958420753479,-0.2973506450653076,-0.05202186852693558,0.6303630471229553,-0.42733514308929443
1764808589.863183,-2.3839003386333584,2.715586408153176,1.9425871887028217,0.37759536504745483,-0.1174958124756813,0.24282623827457428,,,,,,
1764808589.863296,,,,,,,0.48487919569015503,-0.32609784603118896,-0.3281596601009369,0.0630134865641594,0.4682020843029022,-0.13576287031173706
1764808589.873236,-2.573445297628641,2.648531810534,2.1719161688148976,0.2665165066719055,-0.06603353470563889,-0.003820032812654972,,,,,,
1764808589.873326,,,,,,,0.5012219548225403,-0.33173608779907227,-0.3704889416694641,0.1673012673854828,0.28050968050956726,0.1332041472196579
1764808589.883288,-2.7368676811128854,2.530824299520254,2.334512768999487,0.14732247591018677,-0.020598676055669785,-0.2698754072189331,,,,,,
1764808589.883356,,,,,,,0.501131534576416,-0.33895882964134216,-0.4007279872894287,0.26266151666641235,0.08794368803501129,0.40517154335975647
1764808589.89334,-2.822399892447889,2.459485740971565,2.451013680702448,0.033497754484415054,0.02255229465663433,-0.5471122860908508,,,,,,
1764808589.893386,,,,,,,0.5010742545127869,-0.3359041213989258,-0.4173787236213684,0.3171175718307495,-0.11329860985279083,0.6495416164398193
1764808589.903392,-2.724374694764614,2.451999769130349,2.4872727425634857,-0.08138488978147507,0.05261378735303879,-0.8150920271873474,,,,,,
1764808589.903415,,,,,,,0.5094306468963623,-0.3378533124923706,-0.4230059087276459,0.30656561255455017,-0.3144588768482208,0.892568051815033
1764808589.913445,-2.509503279072046,2.4634663350403305,2.5891899792492388,-0.2144855558872223,0.052061937749385834,-1.0743273496627808,0.5227451324462891,-0.33477509021759033,-0.41208091378211975,0.26904433965682983,-0.5003136992454529,1.1290618181228638
1764808589.923476,,,,,,,0.540176510810852,-0.31831344962120056,-0.3937333822250366,0.2595682144165039,-0.6971369981765747,1.3550130128860474
1764808589.923497,-2.298510312248021,2.533694301998615,2.6422482002198695,-0.3513616621494293,0.03668058291077614,-1.3186089992523193,,,,,,
1764808589.933506,,,,,,,0.5554600954055786,-0.29124927520751953,-0.37576723098754883,0.23926986753940582,-0.9221459031105042,1.5444492101669312
1764808589.933549,-2.161214011406153,2.669280584052205,2.5000948147356508,-0.4821825325489044,0.030246349051594734,-1.541900873184204,,,,,,
1764808589.943537,,,,,,,0.5548425316810608,-0.2829495668411255,-0.3398030996322632,0.21472793817520142,-1.1272006034851074,1.7214577198028564
1764808589.943601,-2.1228552007868884,2.7767081085920333,2.158080681816488,-0.6070469617843628,0.014197343029081821,-1.7515016794204712,,,,,,
1764808589.953567,,,,,,,0.5373464822769165,-0.27969902753829956,-0.2933233976364136,0.2010640650987625,-1.310214638710022,1.8860602378845215
1764808589.953654,-2.1010960811823605,2.7302111458331346,1.7956163199342787,-0.7486314177513123,-0.0014693776611238718,-1.9531466960906982,,,,,,
1764808589.963597,,,,,,,0.5253686904907227,-0.24864837527275085,-0.24317848682403564,0.23822107911109924,-1.494717001914978,2.0275723934173584
1764808589.963706,-2.178942414189875,2.647928583943844,1.4132465034902095,-0.8922363519668579,0.00510092917829752,-2.1369900703430176,,,,,,
1764808589.973627,,,,,,,0.5078732371330261,-0.22034136950969696,-0.19771721959114075,0.29550325870513916,-1.661688208580017,2.1608505249023438
1764808589.973758,-2.1762240951418876,2.5004776765733956,1.03235567355752,-1.0174119472503662,0.020767774432897568,-2.3015947341918945,,,,,,
1764808589.983657,,,,,,,0.48756980895996094,-0.19626621901988983,-0.158180832862854,0.3373042047023773,-1.7947077751159668,2.2877819538116455
1764808589.983811,-2.120927739855647,2.4617297205060718,0.7669418191075325,-1.127800703048706,0.06700702011585236,-2.445497512817383,,,,,,
1764808589.993686,,,,,,,0.4804069399833679,-0.19516201317310333,-0.11280328035354614,0.3601738214492798,-1.9030020236968994,2.412397623062134
1764808589.993863,-2.0609587165832517,2.584439569851756,0.589809401635453,-1.2096649408340454,0.12354886531829834,-2.568434476852417,,,,,,
1764808590.003716,,,,,,,0.47617852687835693,-0.20947378873825073,-0.07426635921001434,0.38116657733917236,-1.961923360824585,2.5566420555114746
1764808590.003915,-2.008141318631172,2.6810873417019843,0.4594352282069623,-1.265917420387268,0.15949872136116028,-2.6799426078796387,,,,,,
1764808590.013747,,,,,,,0.47187238931655884,-0.19938403367996216,-0.052966222167015076,0.41087332367897034,-2.012119770050049,2.6823177337646484
1764808590.013967,-1.9636197475984691,2.7421231174230574,0.4103343665599823,-1.3085663318634033,0.19243615865707397,-2.7961230278015137,,,,,,
1764808590.023777,,,,,,,0.4616045355796814,-0.16082271933555603,-0.053274720907211304,0.4442959129810333,-2.0391433238983154,2.7886693477630615
1764808590.02402,-1.9680539306536315,2.7235435046374796,0.4457738556664437,-1.3562461137771606,0.21918924152851105,-2.9176504611968994,,,,,,
1764808590.033807,,,,,,,0.46362078189849854,-0.13482820987701416,-0.037471383810043335,0.4550345838069916,-2.0899925231933594,2.8757872581481934
1764808590.034072,-1.9839833211913704,2.6918127338558433,0.5929869356930255,-1.4145963191986084,0.22978730499744415,-3.0334842205047607,,,,,,
1764808590.043837,,,,,,,0.47361117601394653,-0.13360968232154846,-0.02726423740386963,0.46091753244400024,-2.130781650543213,2.963209390640259
1764808590.044124,-1.968694566644728,2.649113994336128,0.6114882225453854,-1.4752484560012817,0.22267106175422668,-3.135061025619507,,,,,,
1764808590.053867,,,,,,,0.4772658348083496,-0.11850950121879578,-0.008611798286437988,0.4881925582885742,-2.150984287261963,3.043118953704834
1764808590.054177,-1.867469696137309,2.6245658285349607,0.5162883114159107,-1.541872262954712,0.21920537948608398,-3.2276670932769775,,,,,,
1764808590.063898,,,,,,,0.4769580364227295,-0.09265291690826416,0.015961527824401855,0.5636720657348633,-2.198838233947754,3.108466625213623
1764808590.064229,-1.794887275007367,2.7270909679859874,0.3952922802507877,-1.5852433443069458,0.23548033833503723,-3.3134124279022217,,,,,,
1764808590.073928,,,,,,,0.46261900663375854,-0.0859822928905487,0.03273355960845947,0.610314130783081,-2.25530743598938,3.163912534713745
1764808590.074281,-1.6482313174068928,2.8244711457639933,0.17682956206798553,-1.6037427186965942,0.2634075880050659,-3.3923001289367676,,,,,,
1764808590.083958,,,,,,,0.43486785888671875,-0.07959559559822083,0.06644763052463531,0.6570704579353333,-2.2436399459838867,3.235224962234497
1764808590.084333,-1.4838111550569533,2.85079275097847,-0.10965864459276199,-1.6104480028152466,0.27979370951652527,-3.457153081893921,,,,,,
1764808590.093988,,,,,,,0.4128448963165283,-0.061911582946777344,0.09050601720809937,0.70684415102005,-2.208573579788208,3.332796812057495
1764808590.094386,-1.2766589354395865,2.814547717642784,-0.20833061574697492,-1.6140506267547607,0.30826741456985474,-3.5026516914367676,,,,,,
1764808590.104018,,,,,,,0.41644829511642456,-0.03044193983078003,0.09205889701843262,0.6929730176925659,-2.20969295501709,3.3817715644836426
1764808590.104438,-1.102917987036705,2.813359384641051,-0.2898766800552606,-1.6242259740829468,0.355165958404541,-3.5383760929107666,,,,,,
1764808590.114048,,,,,,,0.43649595975875854,-0.015278100967407227,0.08795410394668579,0.6548612713813782,-2.214200258255005,3.431429862976074
1764808590.11449,-0.9686731827199458,2.89484348962903,-0.2661293092429638,-1.6545069217681885,0.38881605863571167,-3.564004898071289,,,,,,
1764808590.124078,,,,,,,0.44899600744247437,-0.0321694016456604,0.07218176126480103,0.5981081128120422,-2.2203173637390137,3.50049090385437
1764808590.124543,-0.8071452346801757,2.8665082065045833,-0.11647654444668441,-1.6932032108306885,0.3888607323169708,-3.588773250579834,,,,,,
1764808590.134108,,,,,,,0.45646798610687256,-0.038589537143707275,0.046653926372528076,0.4680110812187195,-2.2303683757781982,3.519352912902832
1764808590.134595,-0.7302414432197809,2.783879023134708,0.02928860179390758,-1.7469279766082764,0.36003705859184265,-3.618152141571045,,,,,,
1764808590.144138,,,,,,,0.4828309416770935,-0.01171809434890747,0.054367661476135254,0.33215945959091187,-2.2471888065338135,3.5212604999542236
1764808590.144647,-0.7346031455606221,2.7957021473973986,0.18550204028002917,-1.806302547454834,0.2944681644439697,-3.6503846645355225,,,,,,
1764808590.154168,,,,,,,0.5091279149055481,0.013808786869049072,0.07550680637359619,0.2808147966861725,-2.2974178791046143,3.571845769882202
1764808590.154699,-0.6939584159612655,2.8678818329453466,0.23473588065691292,-1.8556005954742432,0.25002196431159973,-3.6679067611694336,,,,,,
1764808590.164198,,,,,,,0.48873239755630493,0.02486342191696167,0.07156240940093994,0.35873889923095703,-2.330179214477539,3.6181931495666504
1764808590.164752,-0.5888204636633396,2.865020013773441,0.019473931276798247,-1.8946534395217896,0.257512629032135,-3.6762173175811768,,,,,,
1764808590.174228,,,,,,,0.44115614891052246,0.03319269418716431,0.09072446823120117,0.4223830997943878,-2.325620174407959,3.6408443450927734
1764808590.174804,-0.49967269217967986,2.7637422440350052,-0.17812603161931037,-1.9293808937072754,0.3111478388309479,-3.6900033950805664,,,,,,
1764808590.184258,,,,,,,0.4079843759536743,0.06885284185409546,0.11936819553375244,0.4690920114517212,-2.313908576965332,3.658673048019409
1764808590.184856,-0.5508019909143448,2.6146885776430366,-0.350013534175232,-1.9667085409164429,0.3949330151081085,-3.681824207305908,,,,,,
1764808590.194288,,,,,,,0.39716964960098267,0.07657945156097412,0.14295637607574463,0.5243438482284546,-2.289665699005127,3.7091922760009766
1764808590.194908,-0.6290887611657381,2.486469024965167,-0.5501952571928501,-1.983337640762329,0.45855337381362915,-3.6833438873291016,,,,,,
1764808590.204319,,,,,,,0.3979114890098572,0.08121204376220703,0.1567528247833252,0.5961975455284119,-2.249056577682495,3.7666282653808594
1764808590.204961,-0.6758814920008183,2.3229908196404576,-0.693911800340563,-2.0008978843688965,0.5029978156089783,-3.725970506668091,,,,,,
1764808590.214349,,,,,,,0.40976500511169434,0.09180712699890137,0.16324424743652344,0.5660365223884583,-2.271911859512329,3.7430200576782227
1764808590.215013,-0.6935586029887199,2.2794261109411713,-0.6608136867284774,-2.0187790393829346,0.5378490686416626,-3.799974203109741,,,,,,
1764808590.224379,,,,,,,0.4103895425796509,0.07547777891159058,0.22401857376098633,0.4624815583229065,-2.219758987426758,3.7345926761627197
1764808590.225065,-0.5808136828184127,2.45586784273535,-0.7194710428804159,-1.9938886165618896,0.5470577478408813,-3.8737306594848633,,,,,,
1764808590.234409,,,,,,,0.39767831563949585,0.04593551158905029,0.24595284461975098,0.3652189075946808,-2.1016674041748047,3.792301654815674
1764808590.235118,-0.2509305710673332,2.797029596608877,-0.8360679623037576,-1.9272072315216064,0.5189424157142639,-3.90731143951416,,,,,,
1764808590.244439,,,,,,,0.40277281403541565,0.03830397129058838,0.23605751991271973,0.29867908358573914,-2.0348570346832275,3.818106174468994
1764808590.24517,0.13107494210898876,3.219899035093188,-0.7859056089051067,-1.849931001663208,0.4469444453716278,-3.890655517578125,,,,,,
1764808590.254469,,,,,,,0.4175352454185486,0.0542336106300354,0.22278770804405212,0.3131277859210968,-1.9638826847076416,3.846635103225708
1764808590.255222,0.4197936843007803,3.523091123795509,-0.5189110611349343,-1.7918999195098877,0.35895419120788574,-3.8571794033050537,,,,,,
1764808590.264499,,,,,,,0.43153074383735657,0.0762183666229248,0.16259217262268066,0.43892452120780945,-1.9219897985458374,3.8961827754974365
1764808590.265274,0.3883136734098196,3.565433012701571,-0.3034562925964594,-1.7884221076965332,0.2711596190929413,-3.8374435901641846,,,,,,
1764808590.274529,,,,,,,0.45122265815734863,0.10210233926773071,0.09145987033843994,0.6114835143089294,-1.9779412746429443,3.8878397941589355
1764808590.275327,0.054898880401253694,3.286244899921119,-0.11915128008127211,-1.837256669998169,0.191717728972435,-3.846247911453247,,,,,,
1764808590.284559,,,,,,,0.4439244866371155,0.14396923780441284,0.07451511919498444,0.8107081055641174,-1.9809314012527466,3.8994343280792236
1764808590.285379,-0.28307109169363975,2.7119617879152296,-0.09198460234478116,-1.9424382448196411,0.146381676197052,-3.8855040073394775,,,,,,
1764808590.294589,,,,,,,0.4161364436149597,0.1896703839302063,0.05556260794401169,1.0205023288726807,-1.9571882486343384,3.899824619293213
1764808590.295431,-0.4521270971506834,2.158961556304246,-0.11185761594176291,-2.0743348598480225,0.17383058369159698,-3.9380226135253906,,,,,,
1764808590.304619,,,,,,,0.4125749468803406,0.1880202293395996,0.07113184034824371,1.1861357688903809,-1.9259363412857056,3.9164845943450928
1764808590.305484,-0.4596154070794582,1.949349960836023,-0.14121873498260973,-2.191265106201172,0.2472323626279831,-3.983555555343628,,,,,,
1764808590.314649,,,,,,,0.4313458502292633,0.13825315237045288,0.12980520725250244,1.2012215852737427,-1.8491531610488892,3.9810869693756104
1764808590.315536,-0.321219328302145,2.2296587482094763,-0.13817629854679106,-2.242523193359375,0.33861061930656433,-3.994957685470581,,,,,,
1764808590.324679,,,,,,,0.45724135637283325,0.08270120620727539,0.18352746963500977,1.103546380996704,-1.7619972229003906,4.040658473968506
1764808590.325588,-0.18105565533041953,2.8502468075335026,-0.3164378661792725,-2.22640323638916,0.4085332453250885,-3.9720218181610107,,,,,,
1764808590.33471,,,,,,,0.47913551330566406,0.04800057411193848,0.206001877784729,0.986082911491394,-1.6793787479400635,4.096960067749023
1764808590.33564,-0.15257599529922009,3.6035955700963735,-0.4854232175529003,-2.1720590591430664,0.42566317319869995,-3.938056230545044,,,,,,
1764808590.34474,,,,,,,0.4977966547012329,0.037228286266326904,0.21273767948150635,0.8522063493728638,-1.6285619735717773,4.132755756378174
1764808590.345693,-0.2024199303984642,4.252972209270299,-0.5746293681602924,-2.097381591796875,0.37651801109313965,-3.921137571334839,,,,,,
1764808590.35477,,,,,,,0.5219485759735107,0.04506438970565796,0.21910429000854492,0.7420819401741028,-1.5950417518615723,4.146992206573486
1764808590.355745,-0.24334756859242915,4.571543653412163,-0.720232163446024,-2.022932767868042,0.26662158966064453,-3.93021559715271,,,,,,
1764808590.3648,,,,,,,0.5353853106498718,0.04814404249191284,0.22131502628326416,0.6757429838180542,-1.581445574760437,4.208536624908447
1764808590.365797,-0.21757482943236828,4.4465375098228455,-0.7842805649865419,-1.9771201610565186,0.12290891259908676,-3.946547269821167,,,,,,
1764808590.37483,,,,,,,0.5339464545249939,0.05248469114303589,0.22040581703186035,0.600063145160675,-1.619200348854065,4.239823341369629
1764808590.375849,-0.042914428097009655,4.0552585568666455,-0.784900669646263,-1.974557876586914,-0.006658629514276981,-3.9795992374420166,,,,,,
1764808590.38486,,,,,,,0.5180578231811523,0.06999528408050537,0.21678268909454346,0.49240484833717346,-1.5896121263504028,4.289510250091553
1764808590.385902,0.1539694954842329,3.5762867074102163,-0.8363380114167929,-2.021296501159668,-0.06714034825563431,-4.038767337799072,,,,,,
1764808590.39489,,,,,,,0.5079076886177063,0.06625992059707642,0.20228075981140137,0.4371783435344696,-1.5213968753814697,4.368907928466797
1764808590.395954,0.3551765429615974,3.212381499069929,-0.8744874901343137,-2.087873935699463,-0.09854190796613693,-4.101866245269775,,,,,,
1764808590.40492,,,,,,,0.5245208144187927,0.04605168104171753,0.2013874053955078,0.34897205233573914,-1.4582186937332153,4.436796188354492
1764808590.406006,0.562478400182724,3.15112272824794,-0.7748604102123529,-2.162858486175537,-0.14693820476531982,-4.140439510345459,,,,,,
1764808590.41495,,,,,,,0.5585108995437622,0.06085020303726196,0.20034897327423096,0.2559971213340759,-1.4038665294647217,4.476401329040527
1764808590.416059,0.6616834553003311,3.391843747729063,-0.5795482659924776,-2.216249942779541,-0.2484404742717743,-4.127063274383545,,,,,,
1764808590.42498,,,,,,,0.5969532132148743,0.08626747131347656,0.20720291137695312,0.1658361703157425,-1.3641843795776367,4.448744773864746
1764808590.426111,0.5654816736519337,3.754283267430961,-0.4224105157356709,-2.2420876026153564,-0.40836888551712036,-4.060661315917969,,,,,,
1764808590.43501,,,,,,,0.6315735578536987,0.13045018911361694,0.2449955940246582,0.06551383435726166,-1.334227204322815,4.419381618499756
1764808590.436163,0.25941958247125146,4.204496055392921,-0.3042506578445434,-2.2332119941711426,-0.5726313591003418,-3.9604732990264893,,,,,,
1764808590.44504,,,,,,,0.6577880382537842,0.15822511911392212,0.27120840549468994,0.007649729959666729,-1.3562127351760864,4.344256401062012
1764808590.446215,-0.07251520111262798,4.7056566480427975,-0.3701864805668592,-2.1815755367279053,-0.7077147364616394,-3.853314161300659,,,,,,
1764808590.45507,,,,,,,0.6686044931411743,0.1498563289642334,0.28095197677612305,-0.041443515568971634,-1.380599021911621,4.248485088348389
1764808590.456268,-0.4477963744699955,5.089056245926022,-0.5940268001347779,-2.121842384338379,-0.8040042519569397,-3.76404070854187,,,,,,
1764808590.465101,,,,,,,0.6636757850646973,0.14046454429626465,0.28724586963653564,-0.18536710739135742,-1.3859457969665527,4.1483869552612305
1764808590.46632,-0.747746120250225,5.152752765288949,-0.6708914286285639,-2.090505361557007,-0.8557320237159729,-3.7005221843719482,,,,,,
1764808590.475131,,,,,,,0.6554893255233765,0.13544559478759766,0.2937527894973755,-0.3397553563117981,-1.3851416110992432,4.070581436157227
1764808590.476372,-0.902521086898446,4.989261408221721,-0.7207710195630789,-2.1081767082214355,-0.873873770236969,-3.66969633102417,,,,,,
1764808590.485161,,,,,,,0.6547614336013794,0.12873560190200806,0.29590749740600586,-0.3658897876739502,-1.3660269975662231,4.095705986022949
1764808590.486425,-0.9315110345393419,4.758765137895941,-0.7469429871737957,-2.155458927154541,-0.8362526297569275,-3.674828052520752,,,,,,
1764808590.495191,,,,,,,0.6617377996444702,0.14297091960906982,0.28417855501174927,-0.28865039348602295,-1.3586926460266113,4.107875823974609
1764808590.496477,-0.8273656004101038,4.664288280344009,-0.9031874418526887,-2.2119524478912354,-0.7598470449447632,-3.6853432655334473,,,,,,
1764808590.505221,,,,,,,0.6715661287307739,0.1856047511100769,0.2758009433746338,-0.3675577938556671,-1.3455289602279663,4.115732192993164
1764808590.506529,-0.6077846918523311,4.8055198748081915,-1.0109101499468087,-2.257847785949707,-0.7215559482574463,-3.676654815673828,,,,,,
1764808590.515251,,,,,,,0.6925643086433411,0.16802704334259033,0.28150439262390137,-0.5109493136405945,-1.3680419921875,4.162445068359375
1764808590.516581,-0.3793143743962049,5.022583832108974,-0.9230056565225124,-2.289234161376953,-0.7736409902572632,-3.652597188949585,,,,,,
1764808590.525281,,,,,,,0.710715115070343,0.03609299659729004,0.30498117208480835,-0.711609959602356,-1.3968125581741333,4.154027462005615
1764808590.526634,-0.265666367906332,5.1831987569570535,-0.8270458669364452,-2.320526361465454,-0.9139914512634277,-3.65165376663208,,,,,,
1764808590.535311,,,,,,,0.7121642231941223,-0.04017513990402222,0.3469496965408325,-0.9574729800224304,-1.3773419857025146,4.087552070617676
1764808590.536686,-0.27487960193157196,5.202343602409958,-0.7048679325103759,-2.351205587387085,-1.122451901435852,-3.700608968734741,,,,,,
1764808590.545341,,,,,,,0.7182733416557312,0.022295653820037842,0.3780859112739563,-1.1453956365585327,-1.3667374849319458,4.070095539093018
1764808590.546738,-0.312787600043416,5.20704023579359,-0.6810439893305301,-2.3668675422668457,-1.3522311449050903,-3.777985095977783,,,,,,
1764808590.555371,,,,,,,0.7300871014595032,0.12493705749511719,0.3908211588859558,-1.1751391887664795,-1.3767459392547607,4.110517978668213
1764808590.55679,-0.2173345909357071,5.335315318050981,-0.6953554232776165,-2.3653407096862793,-1.5618821382522583,-3.8345580101013184,,,,,,
1764808590.565401,,,,,,,0.730822741985321,0.16725850105285645,0.3749789595603943,-1.115641713142395,-1.4061752557754517,4.112447738647461
1764808590.566844,0.016066753181815146,5.524679952043295,-0.8784895653825253,-2.3568170070648193,-1.7119331359863281,-3.830376148223877,,,,,,
1764808590.575431,,,,,,,0.7088114619255066,0.1711714267730713,0.3710818290710449,-1.0769566297531128,-1.3901610374450684,4.089954853057861
1764808590.576895,0.26926819179058076,5.458769263762235,-1.0989759714126586,-2.384115219116211,-1.809908151626587,-3.7839958667755127,,,,,,
1764808590.585461,,,,,,,0.690333366394043,0.18988478183746338,0.37509477138519287,-1.0534106492996216,-1.370234727859497,4.1105756759643555
1764808590.586947,0.3875093712896108,5.213834133717417,-1.1185318088192493,-2.4330532550811768,-1.8697395324707031,-3.7307698726654053,,,,,,
1764808590.595491,,,,,,,0.6879267692565918,0.2192581295967102,0.37205833196640015,-0.9899274706840515,-1.3519985675811768,4.158407211303711
1764808590.597,0.32012948723882434,4.967557525935769,-1.1700655967015772,-2.496849536895752,-1.8961342573165894,-3.702160120010376,,,,,,
1764808590.605522,,,,,,,0.6835522055625916,0.24209797382354736,0.36169499158859253,-0.9928552508354187,-1.3147717714309692,4.187135696411133
1764808590.607052,0.18033961601555346,4.8859787284016605,-1.2507108397126196,-2.5718958377838135,-1.904273509979248,-3.6986401081085205,,,,,,
1764808590.615552,,,,,,,0.6925109028816223,0.25297242403030396,0.3617326617240906,-1.0351624488830566,-1.2378476858139038,4.218686580657959
1764808590.617104,0.11711743616610765,5.018006441190838,-1.2509551698625088,-2.679455280303955,-1.9189293384552002,-3.710503101348877,,,,,,
1764808590.625582,,,,,,,0.740519642829895,0.2573661506175995,0.3610895276069641,-1.097346544265747,-1.1855636835098267,4.243626117706299
1764808590.627156,0.15350947675704954,5.45534688809812,-1.1586990570999682,-2.7919464111328125,-1.9806361198425293,-3.7226157188415527,,,,,,
1764808590.635612,,,,,,,0.8251914381980896,0.2614257037639618,0.36745649576187134,-1.2108651399612427,-1.2583913803100586,4.20449686050415
1764808590.637209,0.28579467143863435,6.156852650699019,-1.194804828095436,-2.854269027709961,-2.092650890350342,-3.710575580596924,,,,,,
1764808590.645642,,,,,,,0.8930999040603638,0.2594722807407379,0.4073954224586487,-1.341122031211853,-1.3158551454544067,4.167656898498535
1764808590.647261,0.46975569282174107,6.774637927561998,-1.3356034379698336,-2.86325740814209,-2.2335448265075684,-3.6631619930267334,,,,,,
1764808590.655672,,,,,,,0.9055132269859314,0.2816210091114044,0.47305530309677124,-1.4924700260162354,-1.4169559478759766,4.138889789581299
1764808590.657313,0.6144093706890941,7.176277531012892,-1.490518251480162,-2.8028769493103027,-2.3527393341064453,-3.597022533416748,,,,,,
1764808590.665702,,,,,,,0.8637978434562683,0.3022412061691284,0.5324399471282959,-1.6753602027893066,-1.4671469926834106,4.0852437019348145
1764808590.667365,0.5613420896291732,7.1637184936910865,-1.8132511992156504,-2.7145965099334717,-2.4074814319610596,-3.536198139190674,,,,,,
1764808590.675732,,,,,,,0.7831200361251831,0.3027831017971039,0.5622788667678833,-1.8783204555511475,-1.3731058835983276,4.005769729614258
1764808590.677418,0.4344081928476691,6.8525137789249415,-1.9260954881072043,-2.63454532623291,-2.3927736282348633,-3.5070748329162598,,,,,,
1764808590.685762,,,,,,,0.7114003300666809,0.32700806856155396,0.5659655332565308,-2.012019634246826,-1.2323789596557617,3.950269937515259
1764808590.68747,0.30051673201322554,6.470360966232419,-1.859407385712862,-2.5694825649261475,-2.3413658142089844,-3.482903242111206,,,,,,
1764808590.695792,,,,,,,0.6849227547645569,0.3907943367958069,0.5271402597427368,-2.057459592819214,-1.1018751859664917,3.8826677799224854
1764808590.697522,0.3535163546644151,6.301181042134761,-1.6158397446289658,-2.5419845581054688,-2.3247013092041016,-3.4395267963409424,,,,,,
1764808590.705822,,,,,,,0.6946050524711609,0.44057396054267883,0.47708404064178467,-2.0530245304107666,-1.0707807540893555,3.842833995819092
1764808590.707575,0.5093399535827339,6.381853246217966,-1.3725021129086612,-2.533473491668701,-2.3759970664978027,-3.391319990158081,,,,,,
1764808590.715852,,,,,,,0.7132291793823242,0.41629916429519653,0.4681928753852844,-2.074601173400879,-1.0793837308883667,3.8032033443450928
