timestamp,phone_accel_x,phone_accel_y,phone_accel_z,phone_gyro_x,phone_gyro_y,phone_gyro_z,watch_accel_x,watch_accel_y,watch_accel_z,watch_gyro_x,watch_gyro_y,watch_gyro_z
1764808545.027865,3.245114432631433,1.105392852717638,-2.1465561021089554,-1.0391995906829834,0.6229456067085266,-2.7756550312042236,,,,,,
1764808545.028786,,,,,,,0.09879404306411743,0.5812221169471741,0.2624897360801697,-0.7641887068748474,-0.45739737153053284,2.961965560913086
1764808545.037918,4.238084729000926,0.9394617012828588,-1.8835504778444765,-0.9585768580436707,0.5623555183410645,-2.7182183265686035,,,,,,
1764808545.038816,,,,,,,0.042749106884002686,0.6033062934875488,0.25005340576171875,-0.7720173597335815,-0.30790165066719055,2.8378050327301025
1764808545.04797,5.097521876454353,1.1520762779593468,-1.8431302046507596,-0.9060346484184265,0.4194757044315338,-2.6217706203460693,,,,,,
1764808545.048846,,,,,,,0.027320146560668945,0.6577109098434448,0.2193017601966858,-0.7856204509735107,-0.2253955751657486,2.6797337532043457
1764808545.058022,5.712741686743498,1.3182166882306336,-2.0581354758560657,-0.848625659942627,0.21428368985652924,-2.469059705734253,,,,,,
1764808545.058876,,,,,,,0.05231750011444092,0.7090755701065063,0.17478539049625397,-0.7587561011314392,-0.2386557161808014,2.4930527210235596
1764808545.068074,6.092755733841657,1.1531675803273915,-2.1930653398275375,-0.7610755562782288,-0.0051916674710810184,-2.2803409099578857,,,,,,
1764808545.068906,,,,,,,0.08103346824645996,0.7209113836288452,0.11873358488082886,-0.7068867683410645,-0.3050805628299713,2.324582815170288
1764808545.078125,6.246722306716442,0.8781763347148894,-2.044311533164978,-0.6681019067764282,-0.1726166158914566,-2.08502197265625,,,,,,
1764808545.078936,,,,,,,0.08358198404312134,0.7337185144424438,0.08461092412471771,-0.6831920742988586,-0.3534552752971649,2.183156967163086
1764808545.088177,6.201675542765855,0.39216333457529545,-1.6993854583218693,-0.5763334631919861,-0.27824196219444275,-1.8978209495544434,,,,,,
1764808545.088967,,,,,,,0.05372464656829834,0.7676866054534912,0.06730936467647552,-0.6679560542106628,-0.3807063400745392,1.9963761568069458
1764808545.098231,6.10735416803658,-0.17329612724483012,-1.3648229565829038,-0.5217647552490234,-0.35602596402168274,-1.7174842357635498,,,,,,
1764808545.098997,,,,,,,-0.001668691635131836,0.8203725814819336,0.03847670555114746,-0.6776345372200012,-0.3673575222492218,1.8114224672317505
1764808545.108283,5.959009526696801,-0.5469190120011568,-1.3289233756840229,-0.5136957764625549,-0.39148595929145813,-1.5386921167373657,,,,,,
1764808545.109027,,,,,,,-0.05365985631942749,0.8743152618408203,-0.001500055193901062,-0.5903006196022034,-0.31748130917549133,1.6470260620117188
1764808545.118335,5.806169327503443,-0.5840045878142118,-1.6464935338288544,-0.5263234376907349,-0.33978840708732605,-1.341495156288147,,,,,,
1764808545.119057,,,,,,,-0.09136760234832764,0.9115294814109802,-0.034159064292907715,-0.44339823722839355,-0.26084065437316895,1.49302077293396
1764808545.128386,5.7183606956690545,-0.6546937425434589,-1.9396072961091995,-0.4964459538459778,-0.21065250039100647,-1.131921648979187,,,,,,
1764808545.129087,,,,,,,-0.10820460319519043,0.913895845413208,-0.054188892245292664,-0.24867835640907288,-0.26531583070755005,1.2914032936096191
1764808545.138438,5.682676218825578,-0.8881658138096332,-1.9417320331782102,-0.43499135971069336,-0.07854853570461273,-0.9325495958328247,,,,,,
1764808545.139117,,,,,,,-0.1279977560043335,0.8841266632080078,-0.05322130024433136,-0.09979726374149323,-0.28245699405670166,1.067919135093689
1764808545.14849,5.6424938460409635,-1.1919243042230605,-1.87638248591125,-0.3712833821773529,0.03532532602548599,-0.7596440315246582,,,,,,
1764808545.149147,,,,,,,-0.15929198265075684,0.8692708015441895,-0.028342410922050476,-0.059577785432338715,-0.28522029519081116,0.8682487607002258
1764808545.158543,5.701542247337103,-1.4952145926028488,-1.9682436080068348,-0.31941965222358704,0.12024873495101929,-0.6224638223648071,,,,,,
1764808545.159177,,,,,,,-0.20279884338378906,0.8688563704490662,0.0005176663398742676,-0.06874145567417145,-0.26612862944602966,0.6663830280303955
1764808545.168595,6.010327626001835,-1.5193272895962,-2.1345605438888073,-0.26913413405418396,0.17986205220222473,-0.49726569652557373,,,,,,
1764808545.169208,,,,,,,-0.2501005530357361,0.8796414732933044,0.0071647316217422485,-0.06268227100372314,-0.1901228129863739,0.4564031958580017
1764808545.178647,6.512746986541152,-1.2837591228336096,-2.2099422403484583,-0.2161758542060852,0.18571381270885468,-0.3390398323535919,,,,,,
1764808545.179238,,,,,,,-0.27980470657348633,0.9049609899520874,-0.0021025389432907104,-0.014554422348737717,-0.09306763857603073,0.24897195398807526
1764808545.188699,6.953528513813018,-0.9593594109296798,-2.315653024098277,-0.16205857694149017,0.1345156580209732,-0.12498936802148819,,,,,,
1764808545.189268,,,,,,,-0.2782559394836426,0.9287737607955933,-0.00543665885925293,0.051951587200164795,-0.02589818648993969,0.06129007786512375
1764808545.198751,7.045055873909592,-0.7613847695022821,-2.4694573921486733,-0.1001608595252037,0.040938299149274826,0.11551458388566971,,,,,,
1764808545.199298,,,,,,,-0.2451493740081787,0.9215936064720154,0.006242096424102783,0.08027537167072296,-0.006548456847667694,-0.14533179998397827
1764808545.208803,6.776994135299325,-0.41656887703537937,-2.6094837024763224,-0.030752437189221382,-0.05486172065138817,0.34915274381637573,,,,,,
1764808545.209328,,,,,,,-0.20285677909851074,0.8826192617416382,0.04678185284137726,-0.007714477367699146,-0.012558146379888058,-0.349986732006073
1764808545.218856,6.283809051573276,-0.223485514780879,-2.657425018824637,0.056789129972457886,-0.14529575407505035,0.5453078746795654,,,,,,
1764808545.219358,,,,,,,-0.16313141584396362,0.8161114454269409,0.08700092136859894,-0.1743553876876831,-0.057334672659635544,-0.5580331683158875
1764808545.228908,5.825441598728299,-0.1976531543880701,-2.6287635724857448,0.14217232167720795,-0.24434316158294678,0.7060261964797974,,,,,,
1764808545.229388,,,,,,,-0.14187616109848022,0.7472419142723083,0.11390615999698639,-0.3701973259449005,-0.08457934856414795,-0.7770592570304871
1764808545.23896,5.402776742905378,-0.20615970144867896,-2.6206518699616193,0.23336906731128693,-0.3348240554332733,0.8521892428398132,,,,,,
1764808545.239418,,,,,,,-0.14165258407592773,0.7107470631599426,0.141215980052948,-0.5478200316429138,-0.07101985812187195,-0.9843463897705078
1764808545.249012,5.012536485347152,-0.23614216725826262,-2.628259714616835,0.3256133496761322,-0.3997837007045746,0.9905930757522583,,,,,,
1764808545.249449,,,,,,,-0.15692353248596191,0.7089017033576965,0.16466611623764038,-0.6730675101280212,-0.02896774560213089,-1.1886680126190186
1764808545.259063,4.706143262515962,-0.1556897434055805,-2.687904620501399,0.4247295558452606,-0.41163691878318787,1.117270588874817,,,,,,
1764808545.259479,,,,,,,-0.1787683367729187,0.7123997211456299,0.17902769148349762,-0.7183122038841248,0.04545455798506737,-1.362858533859253
1764808545.269115,4.45180580561459,0.018738602739572525,-2.7437615322798488,0.5304116606712341,-0.36443963646888733,1.240755558013916,,,,,,
1764808545.269509,,,,,,,-0.18600726127624512,0.6886851787567139,0.18857836723327637,-0.653598964214325,0.154518723487854,-1.5098015069961548
1764808545.279167,4.217481209172308,0.007078560084104538,-2.573669169512391,0.6322269439697266,-0.29786059260368347,1.352479100227356,,,,,,
1764808545.279539,,,,,,,-0.17341619729995728,0.6495599746704102,0.17648696899414062,-0.5458407998085022,0.23439732193946838,-1.6612437963485718
1764808545.289221,4.07473950240612,-0.1235439620822668,-2.2564567387640473,0.7059435844421387,-0.26174062490463257,1.4545255899429321,,,,,,
1764808545.289569,,,,,,,-0.1518062949180603,0.6322890520095825,0.16350805759429932,-0.48425784707069397,0.30645421147346497,-1.813326120376587
1764808545.299273,3.9836549176409837,-0.27969489325881003,-2.0534993404880164,0.7538514733314514,-0.2540334165096283,1.5548367500305176,,,,,,
1764808545.299599,,,,,,,-0.12991255521774292,0.6429082751274109,0.14780431985855103,-0.3829299211502075,0.3802855610847473,-1.9328302145004272
1764808545.309325,3.9424347262412307,-0.029530045866966247,-2.0176748706519603,0.7785032391548157,-0.24789373576641083,1.6663507223129272,,,,,,
1764808545.309629,,,,,,,-0.11755627393722534,0.6475250124931335,0.14223086833953857,-0.2802501916885376,0.48824262619018555,-2.0315723419189453
1764808545.319376,3.863383693619072,0.6260872412621975,-2.147211058886349,0.8110976815223694,-0.2255343645811081,1.8010214567184448,,,,,,
1764808545.319659,,,,,,,-0.0908244252204895,0.6423024535179138,0.14102210104465485,-0.18243175745010376,0.6083597540855408,-2.1103596687316895
1764808545.329428,3.576053190915286,0.993800025191903,-2.1889365694597362,0.8729771375656128,-0.19954732060432434,1.9392365217208862,,,,,,
1764808545.329689,,,,,,,-0.03631591796875,0.5758344531059265,0.13767562806606293,-0.08975931257009506,0.6323660016059875,-2.2191781997680664
1764808545.339481,3.2239751984909173,1.1493781249165533,-1.9505141823098062,0.9279839396476746,-0.21508578956127167,2.0411314964294434,,,,,,
1764808545.33972,,,,,,,0.01919490098953247,0.4802066385746002,0.14623115956783295,-0.12382248044013977,0.6264234185218811,-2.3439748287200928
1764808545.349533,2.8361542770341037,1.5560931319355964,-1.756833730944991,0.9645376801490784,-0.2568558156490326,2.119016647338867,,,,,,
1764808545.34975,,,,,,,0.061652421951293945,0.41486358642578125,0.18530374765396118,-0.28412336111068726,0.6691107153892517,-2.438270330429077
1764808545.359585,2.488102471385896,1.8850123670905827,-1.6926760238111018,1.0139093399047852,-0.31920576095581055,2.181065320968628,,,,,,
1764808545.35978,,,,,,,0.10573160648345947,0.36771097779273987,0.20785826444625854,-0.4148653745651245,0.6623558402061462,-2.5143954753875732
1764808545.369637,2.2726897884234787,1.9489643225193023,-1.6004448993593454,1.05398690700531,-0.43807435035705566,2.2079195976257324,,,,,,
1764808545.36981,,,,,,,0.14250242710113525,0.3124687671661377,0.1955711841583252,-0.5085662007331848,0.6246758699417114,-2.6009793281555176
1764808545.379689,2.2072335659116504,1.8024913202703,-1.5002727527752517,1.0905511379241943,-0.6059455871582031,2.1961398124694824,,,,,,
1764808545.37984,,,,,,,0.17612195014953613,0.27203500270843506,0.18344664573669434,-0.5941429138183594,0.5741775035858154,-2.6460165977478027
1764808545.389741,2.181482015670091,1.4188222577959297,-1.362332893332839,1.1239640712738037,-0.7440229058265686,2.167506694793701,,,,,,
1764808545.38987,,,,,,,0.19471895694732666,0.230354443192482,0.16371017694473267,-0.6426416039466858,0.5058956742286682,-2.6363611221313477
1764808545.399794,2.213033338231593,0.9730372231483458,-0.9842091900259256,1.1349000930786133,-0.8150800466537476,2.1362009048461914,,,,,,
1764808545.3999,,,,,,,0.18445438146591187,0.18002407252788544,0.12618400156497955,-0.7032412886619568,0.4730575680732727,-2.6133644580841064
1764808545.409846,2.2166800241708753,0.9406284069746732,-0.39236733271479607,1.0909664630889893,-0.8522793054580688,2.117265462875366,,,,,,
1764808545.40993,,,,,,,0.143180251121521,0.1479543149471283,0.09497775137424469,-0.7609401941299438,0.5824439525604248,-2.552682399749756
1764808545.419898,2.0463072370268405,1.2063356914132832,-0.20699936714321374,1.0336356163024902,-0.9140681028366089,2.128587245941162,,,,,,
1764808545.419961,,,,,,,0.12654852867126465,0.14825528860092163,0.059083715081214905,-0.7212990522384644,0.7004057765007019,-2.468717336654663
1764808545.42995,1.495066270173341,1.1316963377535343,-0.5956280978515743,1.0555723905563354,-0.9430100917816162,2.156404972076416,,,,,,
1764808545.429991,,,,,,,0.14273005723953247,0.15602780878543854,0.048725426197052,-0.5573199987411499,0.660507082939148,-2.4012880325317383
1764808545.440001,0.6197578921101987,0.747128865134716,-1.0200096944645047,1.169413447380066,-0.8137868046760559,2.148313045501709,,,,,,
1764808545.440021,,,,,,,0.13103574514389038,0.140061616897583,0.08179871737957001,-0.3405224680900574,0.5962545871734619,-2.34210467338562
1764808545.450051,,,,,,,0.06571131944656372,0.11586420983076096,0.11845956742763519,-0.11500544846057892,0.6624032258987427,-2.2630844116210938
1764808545.450053,-0.21970782287307083,0.2764028659760952,-1.0763672492414713,1.2706190347671509,-0.5234518647193909,2.0892159938812256,,,,,,
1764808545.460081,,,,,,,-0.017229437828063965,0.132216215133667,0.13269264996051788,0.20093387365341187,0.8939749598503113,-2.193434715270996
1764808545.460105,-0.6198997847989202,0.18418927718102932,-0.6299658362612128,1.2868422269821167,-0.1871684044599533,2.000375509262085,,,,,,
1764808545.470111,,,,,,,-0.026944756507873535,0.22054272890090942,0.09949362277984619,0.5009493231773376,1.2536488771438599,-2.1538283824920654
1764808545.470158,-0.2853950045965612,1.2833493729889391,-0.002201017175614834,1.1886643171310425,0.05534282699227333,1.9210745096206665,,,,,,
1764808545.480141,,,,,,,0.1151079535484314,0.3288031816482544,0.02596641331911087,0.8946617245674133,1.3424367904663086,-2.1245388984680176
1764808545.480211,0.4482288110705092,2.5826895113140345,0.1285936466872692,1.1304258108139038,0.10532423853874207,1.940545916557312,,,,,,
1764808545.490171,,,,,,,0.31350088119506836,0.29902753233909607,-0.009440772235393524,1.2225004434585571,1.0824244022369385,-2.1234750747680664
1764808545.490263,0.7777221563190221,2.9296453384190797,-0.04929448452293873,1.1418851613998413,0.034419815987348557,2.0458486080169678,,,,,,
1764808545.500202,,,,,,,0.4250842332839966,0.14311739802360535,0.02699960023164749,1.26900053024292,0.7824977040290833,-2.1777734756469727
1764808545.500314,0.6094120738584548,2.5184599079877135,-0.20200170498639344,1.1759616136550903,-0.024751093238592148,2.125974416732788,,,,,,
1764808545.510232,,,,,,,0.4071452021598816,-0.03918107599020004,0.09427422285079956,0.9894683957099915,0.5702030062675476,-2.223517894744873
1764808545.510366,0.23376380248805506,1.5826754339128732,-0.33759295547604556,1.2069255113601685,-0.052182212471961975,2.1196911334991455,,,,,,
1764808545.520262,,,,,,,0.28751760721206665,-0.15840303897857666,0.14431977272033691,0.5922062993049622,0.48146623373031616,-2.232759714126587
1764808545.520418,0.016275390963815153,0.500233833193779,-0.4925941320955753,1.2223742008209229,-0.07511735707521439,2.0265960693359375,,,,,,
1764808545.530292,,,,,,,0.12293261289596558,-0.15414473414421082,0.1569383144378662,0.25049179792404175,0.6012043356895447,-2.1826138496398926
1764808545.530471,0.16993074246495962,-0.04557575626075268,-0.6364815017655492,1.2117704153060913,-0.07154695689678192,1.8942601680755615,,,,,,
1764808545.540322,,,,,,,0.0061574578285217285,-0.05730108171701431,0.1215282678604126,0.17387692630290985,0.865000307559967,-2.1274783611297607
1764808545.540523,0.6286478124652057,0.29033786782622334,-0.28876287359446284,1.168150782585144,-0.06447945535182953,1.786251187324524,,,,,,
1764808545.550352,,,,,,,0.007156729698181152,0.06506926566362381,0.05533576011657715,0.2242593765258789,1.2084729671478271,-2.1027543544769287
1764808545.550575,1.2812348650529979,1.8909037632167338,0.47833413607478137,1.0330976247787476,-0.13259422779083252,1.752686619758606,,,,,,
1764808545.560382,,,,,,,0.19127774238586426,0.17460425198078156,-0.02987802028656006,0.29018354415893555,1.217749834060669,-2.111337661743164
1764808545.560627,1.6538544179856776,3.315392960733175,0.5424401130214334,0.9531859755516052,-0.3382866680622101,1.8275136947631836,,,,,,
1764808545.570412,,,,,,,0.42694759368896484,0.1378115862607956,-0.03744322061538696,0.4179038405418396,0.795812726020813,-2.150726079940796
1764808545.570678,1.3778564795486627,3.5076568232983347,0.2443450551971793,0.9961361289024353,-0.6120855212211609,1.982923984527588,,,,,,
1764808545.580442,,,,,,,0.5229210257530212,-0.006135880947113037,0.018292665481567383,0.379173219203949,0.4227443337440491,-2.14933180809021
1764808545.580732,0.32642244990319014,2.932952563270926,-0.19433394683748484,1.098447561264038,-0.7509860992431641,2.077031135559082,,,,,,
1764808545.590473,,,,,,,0.4259035587310791,-0.1306103616952896,0.15453219413757324,0.2081359475851059,0.28581735491752625,-2.1543264389038086
1764808545.590784,-0.9919665261544287,2.105152078574896,-0.5037576234057546,1.2209779024124146,-0.6330057978630066,2.052382469177246,,,,,,
1764808545.600503,,,,,,,0.2169780731201172,-0.19112630188465118,0.21113622188568115,0.047557730227708817,0.3992869257926941,-2.105419635772705
1764808545.600836,-1.9767295506708322,1.1961153261721134,-0.5086091550901531,1.3154913187026978,-0.355182409286499,1.9217514991760254,,,,,,
1764808545.610533,,,,,,,0.05168706178665161,-0.15839515626430511,0.17352676391601562,0.018152089789509773,0.7707473039627075,-2.038749933242798
1764808545.610888,-2.144851636278629,1.06482528000772,0.30258608563318845,1.2877507209777832,-0.08752617239952087,1.7378077507019043,,,,,,
1764808545.620563,,,,,,,0.04235285520553589,-0.01787695288658142,0.07839047908782959,0.11539022624492645,1.3287889957427979,-1.9505107402801514
1764808545.620939,-1.37036948479414,2.6470184833616015,1.2165572256982327,1.144471287727356,0.027754077687859535,1.6061993837356567,,,,,,
1764808545.630593,,,,,,,0.2537822127342224,0.11794891953468323,-0.007775302976369858,0.48283275961875916,1.3347948789596558,-1.8863943815231323
1764808545.630991,-0.5682205970965325,3.916131825727224,1.169637799743563,1.1220903396606445,0.019958777353167534,1.636825442314148,,,,,,
1764808545.640623,,,,,,,0.5047428607940674,0.09693115949630737,-0.04847252368927002,0.8667279481887817,0.9357077479362488,-1.8780295848846436
1764808545.641043,-0.49239013395607467,4.181923281317949,1.0079719045378268,1.169886589050293,-0.008806024678051472,1.7627737522125244,,,,,,
1764808545.650653,,,,,,,0.6151191592216492,-0.035135418176651,-0.044643525034189224,1.0547051429748535,0.6870289444923401,-1.8762321472167969
1764808545.651096,-0.9974968338832259,3.707636959329247,1.055904891449213,1.1892712116241455,-0.006142127327620983,1.8499131202697754,,,,,,
1764808545.660683,,,,,,,0.552055835723877,-0.18285632133483887,0.031169652938842773,1.012475609779358,0.6037468910217285,-1.9217079877853394
1764808545.661148,-1.7025994519323109,2.950534981712699,1.1244891828536987,1.1980007886886597,0.01178068108856678,1.8372057676315308,,,,,,
1764808545.670714,,,,,,,0.40177905559539795,-0.2613777816295624,0.09473109245300293,0.8567785024642944,0.6316882371902466,-1.907033085823059
1764808545.6712,-2.205874844779074,2.2819605978548525,0.9694634563148021,1.2255667448043823,0.07673269510269165,1.7441736459732056,,,,,,
1764808545.680744,,,,,,,0.27282679080963135,-0.26692238450050354,0.09244561195373535,0.7488120794296265,0.7276129126548767,-1.8194133043289185
1764808545.681252,-2.365361057858169,1.6327683753371238,0.7928373078644275,1.2581989765167236,0.15350311994552612,1.6188242435455322,,,,,,
1764808545.690774,,,,,,,0.1973196268081665,-0.24508997797966003,0.049394138157367706,0.6937393546104431,0.8295709490776062,-1.7245280742645264
1764808545.691304,-2.1772905553296207,1.0688730940937996,0.8529342683654279,1.2421363592147827,0.1923617124557495,1.5040462017059326,,,,,,
1764808545.700804,,,,,,,0.172620952129364,-0.2345471978187561,0.008562572300434113,0.7207150459289551,0.9289494752883911,-1.632496953010559
1764808545.701356,-1.7778388173118234,0.8696873233109712,1.1690168913662433,1.1512306928634644,0.18889054656028748,1.4095364809036255,,,,,,
1764808545.710834,,,,,,,0.19701087474822998,-0.2277543544769287,-0.02245914191007614,0.7354174256324768,1.0555262565612793,-1.5503610372543335
1764808545.711409,-1.2699518390163778,1.5498065990120171,1.6953087104022502,0.9957306385040283,0.13976025581359863,1.3427047729492188,,,,,,
1764808545.720864,,,,,,,0.3000270128250122,-0.20297330617904663,-0.06889975070953369,0.7717189788818359,1.0534197092056274,-1.4972796440124512
1764808545.721461,-0.9667489366590977,2.6614766323029992,1.7860066339373588,0.8583900928497314,0.018512384966015816,1.3182576894760132,,,,,,
1764808545.730894,,,,,,,0.44272613525390625,-0.2212437093257904,-0.09663915634155273,0.8272226452827454,0.793127179145813,-1.4774847030639648
1764808545.731513,-1.1846814934879542,3.1636621840864416,1.346805069333315,0.8250864744186401,-0.13731209933757782,1.3402866125106812,,,,,,
1764808545.740924,,,,,,,0.5126689672470093,-0.29720446467399597,-0.03871452808380127,0.7662466764450073,0.49431517720222473,-1.4585442543029785
1764808545.741565,-1.8554840747892856,3.074913641053438,1.0299380910217761,0.8727074861526489,-0.19873657822608948,1.3467730283737183,,,,,,
1764808545.750955,,,,,,,0.4574151039123535,-0.37518197298049927,0.025285951793193817,0.5633100271224976,0.4028156101703644,-1.3892534971237183
1764808545.751616,-2.6022917451456187,2.725971024045348,1.205662906718254,0.936934769153595,-0.14447645843029022,1.2918111085891724,,,,,,
1764808545.760985,,,,,,,0.3381350636482239,-0.41917386651039124,0.06708574295043945,0.2949233055114746,0.4564431607723236,-1.3009918928146362
1764808545.761668,-3.114711106173694,2.2053268555074927,1.459042624503374,0.9912304878234863,-0.04505160450935364,1.1845240592956543,,,,,,
1764808545.771015,,,,,,,0.2383878231048584,-0.4220658838748932,0.07001543045043945,0.09665504842996597,0.5433136224746704,-1.2076928615570068
1764808545.771722,-3.3724539876043793,1.5876304259717464,1.4982909313082695,1.0248372554779053,0.07209964096546173,1.0527921915054321,,,,,,
1764808545.781045,,,,,,,0.18829286098480225,-0.40070390701293945,0.017781153321266174,0.058982498943805695,0.6154211163520813,-1.0910685062408447
1764808545.781774,-3.394369759075343,0.973001567313075,1.5022165803194045,1.0096063613891602,0.19435285031795502,0.911283016204834,,,,,,
1764808545.791075,,,,,,,0.17508196830749512,-0.36535942554473877,-0.041331514716148376,0.1512513905763626,0.6444815397262573,-0.9794119596481323
1764808545.791825,-3.113086135320365,0.5005348619669675,1.6057389141142366,0.9484316110610962,0.3141782879829407,0.7730799317359924,,,,,,
1764808545.801105,,,,,,,0.17358821630477905,-0.32745033502578735,-0.08255253732204437,0.3114546537399292,0.6576393842697144,-0.8823778033256531
1764808545.801877,-2.566615451608598,0.4182411941617727,1.8322697879403829,0.845720112323761,0.40871331095695496,0.6622058749198914,,,,,,
1764808545.811135,,,,,,,0.1764276623725891,-0.2946987748146057,-0.11334764957427979,0.46063095331192017,0.6842078566551208,-0.7863588929176331
1764808545.811929,-2.0333421031221746,0.7218570612341165,1.9357178874552248,0.7275664210319519,0.4375027120113373,0.599551260471344,,,,,,
1764808545.821165,,,,,,,0.19585025310516357,-0.26988840103149414,-0.12363408505916595,0.5837787389755249,0.6580700278282166,-0.7047929763793945
1764808545.821981,-1.7553534292593598,1.088762620434165,1.7301877160817383,0.6540130972862244,0.41910454630851746,0.5692602396011353,,,,,,
1764808545.831195,,,,,,,0.21789568662643433,-0.27452027797698975,-0.12093876302242279,0.6603239178657532,0.5879204869270325,-0.6228299736976624
1764808545.832034,-1.610296431288123,1.184012215924263,1.638447005495429,0.6117756962776184,0.3293381929397583,0.5482853651046753,,,,,,
1764808545.841226,,,,,,,0.22272348403930664,-0.2932548522949219,-0.09648525714874268,0.632698655128479,0.5254067778587341,-0.5480090379714966
1764808545.842086,-1.5845488265693186,1.203950842103362,1.5601684185504912,0.5867664813995361,0.2500934302806854,0.5284903645515442,,,,,,
1764808545.851256,,,,,,,0.21698594093322754,-0.30139821767807007,-0.08043526113033295,0.5356498956680298,0.46953898668289185,-0.47405052185058594
1764808545.852138,-1.6985644973278045,1.1201660589575766,1.5661533381789923,0.5795407295227051,0.19557683169841766,0.49573764204978943,,,,,,
1764808545.861286,,,,,,,0.20728904008865356,-0.31830930709838867,-0.07319404184818268,0.40846800804138184,0.39595267176628113,-0.42378947138786316
1764808545.86219,-1.8221441152453421,0.9199754950463771,1.6806132455736398,0.5584210753440857,0.1449437439441681,0.45176273584365845,,,,,,
1764808545.871316,,,,,,,0.18820971250534058,-0.33916032314300537,-0.06681500375270844,0.2434830218553543,0.3398020267486572,-0.3982895612716675
1764808545.872241,-1.9653318122133612,0.6765080994665622,1.6403209826737641,0.5204747915267944,0.1223834753036499,0.3948275148868561,,,,,,
1764808545.881346,,,,,,,0.16371393203735352,-0.34653234481811523,-0.07325398921966553,0.13126887381076813,0.3172203004360199,-0.36400508880615234
1764808545.882294,-2.0970400837898255,0.3970785791456699,1.562304261535406,0.47161802649497986,0.11912296712398529,0.3239315152168274,,,,,,
1764808545.891376,,,,,,,0.14127624034881592,-0.3263404369354248,-0.08966492116451263,0.07899972051382065,0.2965456545352936,-0.3153000771999359
1764808545.892347,-2.0977391719698906,0.2579144386053085,1.5420008936971425,0.4061782956123352,0.12502676248550415,0.24580860137939453,,,,,,
1764808545.901406,,,,,,,0.12833023071289062,-0.2844206690788269,-0.10571657121181488,0.09329982846975327,0.2671195864677429,-0.25819313526153564
1764808545.902398,-1.9800521192222833,0.2292944933205843,1.4506512282550335,0.33139699697494507,0.1380957067012787,0.17758427560329437,,,,,,
1764808545.911436,,,,,,,0.12066388130187988,-0.2534828186035156,-0.10959982872009277,0.1239035502076149,0.21753497421741486,-0.2033604234457016
1764808545.912451,-1.8135697636455297,0.20719255162775516,1.2375000604838131,0.26721447706222534,0.1570814549922943,0.12164110690355301,,,,,,
1764808545.921467,,,,,,,0.11232298612594604,-0.23908782005310059,-0.09773409366607666,0.1445568948984146,0.1606176346540451,-0.14438685774803162
1764808545.922503,-1.5971084484130142,0.18308979150652885,1.0753566108942032,0.21698753535747528,0.172345370054245,0.0634518414735794,,,,,,
1764808545.931497,,,,,,,0.09622746706008911,-0.2323133945465088,-0.07899165153503418,0.15975771844387054,0.11373613774776459,-0.06723334640264511
1764808545.932554,-1.3529770359665154,0.16055881074666975,0.9650368720442056,0.18556149303913116,0.1699334681034088,0.006252550985664129,,,,,,
1764808545.941527,,,,,,,0.07504552602767944,-0.22571313381195068,-0.06160295009613037,0.13664333522319794,0.08540116995573044,0.011422586627304554
1764808545.942606,-1.0526590413957833,0.15436287871599197,0.8604103763997554,0.16552254557609558,0.1573825180530548,-0.04142921790480614,,,,,,
1764808545.951557,,,,,,,0.05484020709991455,-0.21606820821762085,-0.050656065344810486,0.11450710147619247,0.09469347447156906,0.07001212984323502
1764808545.952658,-0.8094020736962556,0.17352467530369758,0.8979805208593606,0.14606299996376038,0.11928092688322067,-0.07527130842208862,,,,,,
1764808545.961587,,,,,,,0.044659435749053955,-0.1949375867843628,-0.046961188316345215,0.08979110419750214,0.1146213710308075,0.10987405478954315
1764808545.962711,-0.6506523581981658,0.23028525792360305,0.8964631020337342,0.12168975174427032,0.05706255882978439,-0.09794679284095764,,,,,,
1764808545.971617,,,,,,,0.055793583393096924,-0.15754234790802002,-0.05166637897491455,0.08697587251663208,0.11161120235919952,0.14514629542827606
1764808545.972763,-0.6365835008352995,0.2652887667655945,0.8413491175770759,0.10140018165111542,-0.0011124908924102783,-0.10479047149419785,,,,,,
1764808545.981647,,,,,,,0.07677018642425537,-0.12451618909835815,-0.05010189116001129,0.08776869624853134,0.06737317144870758,0.17028839886188507
1764808545.982816,-0.7127958029001951,0.2639361831128597,0.7839788055609911,0.07693079113960266,-0.040685199201107025,-0.09549816697835922,,,,,,
1764808545.991677,,,,,,,0.08437401056289673,-0.11309576034545898,-0.04637408256530762,0.06426017731428146,0.018119871616363525,0.18065954744815826
1764808545.992867,-0.877949540221691,0.22797698098123073,0.751795103380084,0.05115159973502159,-0.055191341787576675,-0.09336153417825699,,,,,,
1764808546.001707,,,,,,,0.07876110076904297,-0.11726796627044678,-0.04735328257083893,0.027332520112395287,-0.006876558065414429,0.18568706512451172
1764808546.002919,-1.009020682938397,0.1792833849608898,0.7256599606484174,0.019284214824438095,-0.05513541400432587,-0.11038631945848465,,,,,,
1764808546.011738,,,,,,,0.06460100412368774,-0.12166023254394531,-0.04163530468940735,-0.017553994432091713,-0.01825198531150818,0.1796957552433014
1764808546.012971,-1.016323699428141,0.1619821215480566,0.6385095004618168,-0.012123847380280495,-0.03208779916167259,-0.13679289817810059,,,,,,
1764808546.021768,,,,,,,0.05296361446380615,-0.11318278312683105,-0.034223929047584534,-0.03638350963592529,-0.023948486894369125,0.16922526061534882
1764808546.023023,-0.9261071296691894,0.13415946412086485,0.5547059395503252,-0.035472311079502106,0.002495479304343462,-0.1612630933523178,,,,,,
1764808546.031798,,,,,,,0.045612633228302,-0.1002083420753479,-0.02379240095615387,-0.046880800276994705,-0.03184422478079796,0.17799925804138184
1764808546.033076,-0.8108297684118151,0.15148761554062365,0.46059382365755736,-0.05096101760864258,0.04436750337481499,-0.17847725749015808,,,,,,
1764808546.041828,,,,,,,0.039424896240234375,-0.08309739828109741,-0.016698598861694336,-0.04448901489377022,-0.02663242071866989,0.19327408075332642
1764808546.043127,-0.6900152312934398,0.22383330530524254,0.430057304161787,-0.05966529622673988,0.07993455231189728,-0.187617227435112,,,,,,
1764808546.051858,,,,,,,0.03254669904708862,-0.06987875699996948,-0.009979739785194397,-0.02820705994963646,-0.01598510332405567,0.20704887807369232
1764808546.05318,-0.553179533700645,0.31483401117920873,0.37555641010217367,-0.060490500181913376,0.10659132152795792,-0.1984182745218277,,,,,,
1764808546.061888,,,,,,,0.03308439254760742,-0.05685526132583618,-0.0076851993799209595,0.0065027158707380295,-0.008066991344094276,0.22068320214748383
1764808546.063231,-0.3976648546010256,0.3492518290877342,0.3736801679015159,-0.054640863090753555,0.11088567227125168,-0.20924562215805054,,,,,,
1764808546.071918,,,,,,,0.038403093814849854,-0.042448580265045166,-0.007294058799743652,0.055482715368270874,0.001573385437950492,0.23355704545974731
1764808546.073283,-0.2171449135825038,0.3912754458248615,0.3868319469520822,-0.049811333417892456,0.09219840914011002,-0.2123638540506363,,,,,,
1764808546.081948,,,,,,,0.04196804761886597,-0.026416480541229248,-0.005392670631408691,0.08994242548942566,0.0003744303248822689,0.24299556016921997
1764808546.083336,-0.13267214817255735,0.38534605577588077,0.37872524939663704,-0.037224967032670975,0.06873729079961777,-0.20352162420749664,,,,,,
1764808546.091979,,,,,,,0.04298931360244751,-0.018089354038238525,0.0001352950930595398,0.10323886573314667,-0.007640885189175606,0.24628908932209015
1764808546.093388,-0.17477321406006813,0.35436931823194023,0.3556605270862579,-0.020389311015605927,0.050904273986816406,-0.1858416497707367,,,,,,
1764808546.102009,,,,,,,0.03795969486236572,-0.025087356567382812,-0.001246333122253418,0.10217040777206421,-0.005945250391960144,0.24690242111682892
1764808546.10344,-0.23255057250708341,0.20271920560598372,0.3891267798909917,-0.014174026437103748,0.04065217077732086,-0.1869199573993683,,,,,,
1764808546.112039,,,,,,,0.02816230058670044,-0.030680358409881592,-0.006901390850543976,0.09775280207395554,0.009280040860176086,0.24247299134731293
1764808546.113492,-0.2563169402807951,0.03182663237154484,0.403889428204298,-0.02557407133281231,0.03448581323027611,-0.20186910033226013,,,,,,
1764808546.122069,,,,,,,0.020880699157714844,-0.02657407522201538,-0.012344606220722198,0.10451830178499222,0.01838165894150734,0.24266153573989868
1764808546.123545,-0.3065463675662875,0.15205518629550932,0.35885088409278537,-0.037636060267686844,0.04408517852425575,-0.20209680497646332,,,,,,
1764808546.132099,,,,,,,0.017430126667022705,-0.025051236152648926,-0.01454247534275055,0.10721347481012344,0.02054600976407528,0.23227140307426453
1764808546.133596,-0.4257169368699193,0.27122750916481014,0.20913257977962493,-0.03878145292401314,0.0811326801776886,-0.18183746933937073,,,,,,
1764808546.142129,,,,,,,0.015755534172058105,-0.02656787633895874,-0.011052384972572327,0.1062917560338974,0.02536686509847641,0.22287258505821228
1764808546.143649,-0.557271186928451,0.1863596069574356,0.16401450415849686,-0.03456646949052811,0.13658501207828522,-0.16962021589279175,,,,,,
1764808546.152159,,,,,,,0.016144990921020508,-0.022968530654907227,-0.002564080059528351,0.10997562110424042,0.020404329523444176,0.22828499972820282
1764808546.1537,-0.5966095101043581,0.0792588301539421,0.17094751829206942,-0.04216618090867996,0.19808238744735718,-0.164571151137352,,,,,,
1764808546.162189,,,,,,,0.016347289085388184,-0.007282674312591553,0.0021941810846328735,0.1403508484363556,0.004101790487766266,0.23242461681365967
1764808546.163752,-0.543143877376616,-0.00020107553005218505,0.14933310438785702,-0.05035273730754852,0.25278347730636597,-0.16589634120464325,,,,,,
1764808546.172219,,,,,,,0.011804521083831787,0.0034218430519104004,8.809566497802734e-05,0.1991649717092514,-0.0030487969052046537,0.2363734096288681
1764808546.173804,-0.40658670446425677,-0.03745148651599884,0.12366967082116752,-0.05759226530790329,0.2989676296710968,-0.1830381602048874,,,,,,
1764808546.18225,,,,,,,0.001608431339263916,0.0016320347785949707,0.0007098913192749023,0.23968283832073212,-0.006504514254629612,0.2393987625837326
1764808546.183857,-0.24071195939183235,-0.013398995277285575,0.11830200630817561,-0.05609796196222305,0.3232868015766144,-0.1940535306930542,,,,,,
1764808546.19228,,,,,,,-0.008563697338104248,-0.00569760799407959,0.0024912282824516296,0.24953342974185944,-0.0006570119876414537,0.24715042114257812
1764808546.193909,-0.06424392411261796,-0.07000409507453441,0.14485150199439376,-0.05941511318087578,0.3109135925769806,-0.19291485846042633,,,,,,
1764808546.20231,,,,,,,-0.015189766883850098,-0.014363765716552734,0.003785952925682068,0.2486865520477295,0.0013997473288327456,0.2546456456184387
1764808546.203961,0.05710749636143446,-0.12406886273920535,0.12387191539499907,-0.05889366939663887,0.28087472915649414,-0.18877257406711578,,,,,,
1764808546.21234,,,,,,,-0.01631176471710205,-0.02031862735748291,0.0016874074935913086,0.25104042887687683,0.000821042456664145,0.25831338763237
1764808546.214013,0.11333791762739419,-0.14646949511766433,0.09980130397770554,-0.0581490695476532,0.2362450212240219,-0.1837707906961441,,,,,,
1764808546.22237,,,,,,,-0.021334528923034668,-0.01710110902786255,0.006959080696105957,0.23511257767677307,-0.0023025793489068747,0.2607118487358093
1764808546.224065,0.13948708888441325,-0.19587737688720225,0.04438040899634361,-0.05868809297680855,0.18667107820510864,-0.18032465875148773,,,,,,
1764808546.2324,,,,,,,-0.025878071784973145,-0.012297272682189941,0.013481609523296356,0.183399960398674,-0.005948713049292564,0.24968183040618896
1764808546.234118,0.058655602586269374,-0.22666940551400183,-0.011598667857050896,-0.05450964346528053,0.14643166959285736,-0.17799554765224457,,,,,,
1764808546.24243,,,,,,,-0.028974592685699463,-0.018893897533416748,0.01686321198940277,0.1211395114660263,-0.0007893710862845182,0.23963452875614166
1764808546.244169,0.015295476548373698,-0.2002151138305664,-0.02755556745622307,-0.051343679428100586,0.11422233283519745,-0.17695878446102142,,,,,,
1764808546.25246,,,,,,,-0.032402873039245605,-0.024117350578308105,0.021353736519813538,0.05335529148578644,0.009590298868715763,0.22291645407676697
1764808546.254221,-0.007990121971070767,-0.17763561775386333,-0.05747545289099216,-0.04237864911556244,0.0858607366681099,-0.17856533825397491,,,,,,
1764808546.26249,,,,,,,-0.03424471616744995,-0.01271909475326538,0.02577172964811325,0.021040495485067368,0.020565452054142952,0.20520217716693878
1764808546.264273,-0.04525923765748739,-0.13195406303107737,-0.0984124434351921,-0.031044768169522285,0.07677030563354492,-0.17697569727897644,,,,,,
1764808546.272521,,,,,,,-0.03422880172729492,0.008798778057098389,0.027849189937114716,0.019624019041657448,0.023895202204585075,0.17955926060676575
1764808546.274325,-0.022343933755159376,-0.11591244429051875,-0.1390560405233875,-0.02387814410030842,0.07593397796154022,-0.16841521859169006,,,,,,
1764808546.282551,,,,,,,-0.03143662214279175,0.0329136848449707,0.029114842414855957,0.028591148555278778,0.025874197483062744,0.15848539769649506
1764808546.284377,0.0008989946663379669,-0.1226508126348257,-0.2142377756978385,-0.016338733956217766,0.08528140932321548,-0.16109685599803925,,,,,,
1764808546.292581,,,,,,,-0.03203928470611572,0.04829972982406616,0.031020984053611755,0.03310733661055565,0.0334402397274971,0.13799956440925598
1764808546.29443,0.06395546256005763,-0.1295703827649355,-0.279338955960609,-0.007819113321602345,0.10104601830244064,-0.1516229808330536,,,,,,
1764808546.302611,,,,,,,-0.03397798538208008,0.055752336978912354,0.03540980815887451,0.034532394260168076,0.043691810220479965,0.1195414662361145
1764808546.304482,0.16573358303606509,-0.14428630585968494,-0.34590661031305786,0.005767003167420626,0.11832913756370544,-0.13777348399162292,,,,,,
1764808546.312641,,,,,,,-0.03690451383590698,0.062494874000549316,0.04513944685459137,0.04169227555394173,0.05140352621674538,0.10443901270627975
1764808546.314534,0.26520108848214147,-0.1176139875113964,-0.3693307405203581,0.021061360836029053,0.12930670380592346,-0.1166200116276741,,,,,,
1764808546.322671,,,,,,,-0.0418209433555603,0.07310062646865845,0.048599258065223694,0.05152413249015808,0.06576462090015411,0.08738013356924057
1764808546.324586,0.35492782889753577,-0.09767711489796638,-0.3847054563174024,0.040331464260816574,0.1282757818698883,-0.09261054545640945,,,,,,
1764808546.332701,,,,,,,-0.04473084211349487,0.07802945375442505,0.04775644838809967,0.07466161996126175,0.08497240394353867,0.07202601432800293
1764808546.334638,0.4051970036715269,-0.09572130465507507,-0.4020025915443897,0.05961648374795914,0.11890328675508499,-0.073847696185112,,,,,,
1764808546.342731,,,,,,,-0.04627913236618042,0.07797902822494507,0.04721307009458542,0.09669661521911621,0.10385288298130035,0.045568838715553284
1764808546.34469,0.4067512473762035,-0.06618950522243976,-0.40176410661339756,0.08116092532873154,0.10986132174730301,-0.05212030187249184,,,,,,
1764808546.352762,,,,,,,-0.04525357484817505,0.07270032167434692,0.05145716667175293,0.11158233135938644,0.1267869621515274,0.021270757541060448
1764808546.354742,0.3523471647545695,-0.038843817657232285,-0.414499706078507,0.0996604710817337,0.11833260208368301,-0.03332429751753807,,,,,,
1764808546.362792,,,,,,,-0.04311192035675049,0.06929135322570801,0.056069254875183105,0.10951597988605499,0.14815697073936462,0.0023007942363619804
1764808546.364794,0.27589199384450913,-0.002598199799656868,-0.46118601739704607,0.12285181134939194,0.1331925094127655,-0.018794888630509377,,,,,,
1764808546.372822,,,,,,,-0.03703039884567261,0.07106077671051025,0.05772757530212402,0.11381228268146515,0.16804759204387665,-0.012572760693728924
1764808546.374846,0.22811083649396896,-0.002655482944846153,-0.46763563192784785,0.1425197273492813,0.1617022603750229,-0.005614912137389183,,,,,,
1764808546.382852,,,,,,,-0.03182482719421387,0.06823563575744629,0.05251764506101608,0.12886740267276764,0.18376369774341583,-0.03850315883755684
1764808546.384898,0.20127485201656817,-0.04204056787192821,-0.4112707706272602,0.16254164278507233,0.18608403205871582,0.006848415359854698,,,,,,
1764808546.392882,,,,,,,-0.0315822958946228,0.07238638401031494,0.04790675640106201,0.1356327086687088,0.2013126015663147,-0.06356716901063919
1764808546.39495,0.21682927176207303,-0.03698445352613926,-0.30391746210111303,0.1732579916715622,0.2027561366558075,0.02066650055348873,,,,,,
1764808546.402912,,,,,,,-0.029917240142822266,0.07926809787750244,0.042417049407958984,0.1476646065711975,0.22129429876804352,-0.07827900350093842
1764808546.405003,0.26393530633002515,-0.0036918402552604673,-0.2851314765558578,0.18362835049629211,0.21126998960971832,0.03732670471072197,,,,,,
1764808546.412941,,,,,,,-0.0245591402053833,0.0761834979057312,0.03496512770652771,0.16851688921451569,0.23394431173801422,-0.09025723487138748
1764808546.415056,0.2763897142335772,0.014192776003479957,-0.2982651354278438,0.1977725327014923,0.21534621715545654,0.05707927420735359,,,,,,
1764808546.422972,,,,,,,-0.020711064338684082,0.065127432346344,0.03106771409511566,0.1951943039894104,0.24155136942863464,-0.11294817179441452
1764808546.425107,0.25905425629019735,0.0038549218624830245,-0.2771481131191365,0.20751410722732544,0.2193441540002823,0.07695285230875015,,,,,,
1764808546.433002,,,,,,,-0.017640113830566406,0.051203012466430664,0.028785720467567444,0.21242572367191315,0.24667049944400787,-0.12309927493333817
1764808546.435159,0.21397592815756797,-0.0034983635097742076,-0.26131049251807853,0.21443352103233337,0.22608917951583862,0.08952847868204117,,,,,,
1764808546.443033,,,,,,,-0.013162434101104736,0.03896450996398926,0.03074169158935547,0.2131226658821106,0.24641989171504974,-0.12245425581932068
1764808546.445211,0.1658329517573118,-0.008918634992837906,-0.25019988217260686,0.21822400391101837,0.23595592379570007,0.09394852072000504,,,,,,
1764808546.453063,,,,,,,-0.008672535419464111,0.0298231840133667,0.024995699524879456,0.20311513543128967,0.2528136074542999,-0.12585212290287018
1764808546.455263,0.14005349059551953,0.03958089976012707,-0.21494736700560896,0.2117052525281906,0.23479987680912018,0.09733057767152786,,,,,,
1764808546.463093,,,,,,,-0.0005693435668945312,0.021555960178375244,0.015206098556518555,0.18369296193122864,0.2573319375514984,-0.13059520721435547
1764808546.465315,0.16599983275681734,0.1037456211566925,-0.13481884134504943,0.1983598917722702,0.21377421915531158,0.09379736334085464,,,,,,
1764808546.473123,,,,,,,0.01672649383544922,0.00952833890914917,0.008428439497947693,0.18257267773151398,0.23602530360221863,-0.12559005618095398
1764808546.475367,0.17680325858294962,0.13599953902959822,-0.10288524146769196,0.18548955023288727,0.18384571373462677,0.09621257334947586,,,,,,
1764808546.483153,,,,,,,0.028349220752716064,-0.006103694438934326,0.008077263832092285,0.176187202334404,0.20243778824806213,-0.116368867456913
1764808546.48542,0.16007336531728505,0.12660218060910702,-0.10686174388322979,0.1737745702266693,0.15388913452625275,0.09147800505161285,,,,,,
1764808546.493183,,,,,,,0.030762851238250732,-0.01639324426651001,0.010898947715759277,0.1502542346715927,0.17653322219848633,-0.10981815308332443
1764808546.495471,0.10869242990911006,0.12587386633455752,-0.05544946348872035,0.1616036295890808,0.11913541704416275,0.08163776993751526,,,,,,
1764808546.503213,,,,,,,0.026791095733642578,-0.02755606174468994,0.008852481842041016,0.1367378979921341,0.16800019145011902,-0.09991225600242615
1764808546.505524,0.07910042472183704,0.08062193520069122,-0.0006733326843008399,0.15137310326099396,0.07105524092912674,0.0701100081205368,,,,,,
1764808546.513243,,,,,,,0.02065730094909668,-0.0362817645072937,0.0036356300115585327,0.1276775598526001,0.14994847774505615,-0.087118960916996
1764808546.515576,0.008989654402434825,0.01698854420185089,0.018641608638502657,0.14010971784591675,0.03018619492650032,0.05687755346298218,,,,,,
1764808546.523273,,,,,,,0.016359329223632812,-0.038146913051605225,2.8967857360839844e-05,0.10968257486820221,0.13365526497364044,-0.07460876554250717
1764808546.525628,-0.08905337119847535,-0.034840427234768864,0.043919221225380896,0.12260370701551437,0.006075000390410423,0.043563611805438995,,,,,,
1764808546.533304,,,,,,,0.014157652854919434,-0.04078984260559082,-0.004900217056274414,0.06938468664884567,0.1220390796661377,-0.056888360530138016
1764808546.53568,-0.18468728983104227,-0.06787935800552368,0.06079148210380226,0.09845254570245743,-0.0007467962568625808,0.0258024912327528,,,,,,
1764808546.543334,,,,,,,0.01506662368774414,-0.05019962787628174,-0.009893640875816345,0.011624183505773544,0.10944712162017822,-0.03531143069267273
1764808546.545732,-0.219078511993587,-0.02301730297207832,0.045539479370974,0.0755232647061348,-0.001568114967085421,-0.003228361252695322,,,,,,
1764808546.553364,,,,,,,0.015490293502807617,-0.0695682168006897,-0.00760197639465332,-0.029824988916516304,0.09755876660346985,-0.014589639380574226
1764808546.555784,-0.16817133157700298,0.07544599386751652,-0.015891944604180752,0.06452196836471558,0.004401779267936945,-0.02808733470737934,,,,,,
1764808546.563394,,,,,,,0.01305234432220459,-0.07325530052185059,0.0032650232315063477,-0.07055776566267014,0.08534391224384308,-0.007830802351236343
1764808546.565836,-0.0986608652383089,0.06147650522589683,-0.039988859506510196,0.07358977198600769,-0.0008318648906424642,-0.04392488673329353,,,,,,
1764808546.573424,,,,,,,0.009080350399017334,-0.052285075187683105,0.011191368103027344,-0.1108764111995697,0.07035671174526215,-0.004173084162175655
1764808546.575888,-0.07940320706069469,-0.023211948761343956,0.006191255855560302,0.08674048632383347,-0.023506440222263336,-0.04935671016573906,,,,,,
1764808546.583454,,,,,,,0.005584895610809326,-0.03431433439254761,0.0062116533517837524,-0.12613844871520996,0.06711643934249878,0.006614848971366882
1764808546.58594,-0.05645049375742674,-0.09857844765186309,0.1426198704848066,0.08832213282585144,-0.05329682305455208,-0.049625955522060394,,,,,,
1764808546.593484,,,,,,,0.0015042424201965332,-0.020679593086242676,-0.0016977936029434204,-0.12051012367010117,0.06490255147218704,0.01386217586696148
1764808546.595992,-0.05599427442252636,-0.15562310791015624,0.18306757967472076,0.07984904199838638,-0.05832657217979431,-0.04836106300354004,,,,,,
1764808546.603514,,,,,,,-0.003736257553100586,-0.008756041526794434,-0.007989764213562012,-0.0942462906241417,0.07585640251636505,0.015559408813714981
1764808546.606045,-0.09967267262935638,-0.1052881744235754,0.1904027814010158,0.06269509345293045,-0.04609733819961548,-0.04968145862221718,,,,,,
1764808546.613545,,,,,,,-0.003956615924835205,-0.005448400974273682,-0.013308167457580566,-0.06811103224754333,0.08953466266393661,0.020915556699037552
1764808546.616097,-0.15302812298089266,-0.0009223755419254302,0.15355042982194572,0.047242000699043274,-0.018994314596056938,-0.049973923712968826,,,,,,
1764808546.623575,,,,,,,0.0014887452125549316,-0.0030699968338012695,-0.015706434845924377,-0.0644204244017601,0.09650468826293945,0.022442080080509186
1764808546.626149,-0.09010930999219417,0.14313888939023017,0.09221300427317619,0.0420251339673996,0.013562563806772232,-0.039438191801309586,,,,,,
1764808546.633605,,,,,,,0.008884191513061523,0.00027561187744140625,-0.006777167320251465,-0.09926305711269379,0.09290329366922379,0.002158381510525942
1764808546.636201,-0.0437403575271368,0.25229192254841326,0.04084580512940884,0.05410213768482208,0.021787436679005623,-0.02002689056098461,,,,,,
1764808546.643635,,,,,,,0.010813295841217041,0.009527623653411865,0.00753939151763916,-0.1565583050251007,0.08552767336368561,-0.026887917891144753
1764808546.646253,-0.008354571369290352,0.21145371620357034,-0.006218728384375572,0.08634023368358612,0.006694503594189882,-0.0017035444034263492,,,,,,
1764808546.653665,,,,,,,0.007573187351226807,0.015458285808563232,0.020846471190452576,-0.2045934945344925,0.07615174353122711,-0.06856758892536163
1764808546.656305,0.04392243609577417,0.1241542029350996,0.017306012653186917,0.11654933542013168,-0.01710471510887146,0.011272260919213295,,,,,,
1764808546.663695,,,,,,,-2.956390380859375e-05,0.015399336814880371,0.024949565529823303,-0.25991401076316833,0.079343281686306,-0.12294107675552368
1764808546.666358,0.11370967354923486,0.1129869122326374,0.0518535944212228,0.13245293498039246,-0.04210168123245239,0.02491164021193981,,,,,,
1764808546.673725,,,,,,,-0.009793758392333984,0.03047281503677368,0.02529524266719818,-0.3187018632888794,0.11248765140771866,-0.16966404020786285
1764808546.676409,0.19074118304252624,0.10516074865162373,-0.06066694240868091,0.1484442502260208,-0.04688724875450134,0.0432322658598423,,,,,,
1764808546.683755,,,,,,,-0.015128135681152344,0.054625749588012695,0.024833068251609802,-0.32628172636032104,0.1328595131635666,-0.19565169513225555
1764808546.686461,0.28046061693429947,0.13951836080551147,-0.2097002235997468,0.17318396270275116,-0.016834542155265808,0.06555648148059845,,,,,,
1764808546.693785,,,,,,,-0.012894093990325928,0.07115894556045532,0.021242856979370117,-0.2837158143520355,0.14255128800868988,-0.21897287666797638
1764808546.696514,0.36564123835265633,0.1240232700318098,-0.2421651538748294,0.197526216506958,0.025463251397013664,0.10028042644262314,,,,,,
1764808546.703816,,,,,,,-0.01314091682434082,0.08933144807815552,0.020385026931762695,-0.22399336099624634,0.16629789769649506,-0.24318553507328033
1764808546.706565,0.3857715877115726,0.05202887792289257,-0.23076756154783068,0.21218132972717285,0.06221939995884895,0.13440297544002533,,,,,,
1764808546.713846,,,,,,,-0.016876161098480225,0.10447573661804199,0.01990891993045807,-0.17072629928588867,0.18219776451587677,-0.2631177008152008
1764808546.716618,0.355380541101098,0.04328969115018844,-0.2920867573201656,0.22482021152973175,0.10778066515922546,0.15999943017959595,,,,,,
1764808546.723876,,,,,,,-0.019095242023468018,0.10588079690933228,0.02862846851348877,-0.17623744904994965,0.18285688757896423,-0.28761184215545654
1764808546.726671,0.33353140512555834,0.058978843191266055,-0.4545043476760387,0.24922755360603333,0.16544608771800995,0.17596720159053802,,,,,,
1764808546.733906,,,,,,,-0.020509541034698486,0.09775269031524658,0.03986193239688873,-0.160201296210289,0.1809982806444168,-0.3206160068511963
1764808546.736722,0.49780485248118633,0.07507423794567585,-0.5000836110681295,0.2817882001399994,0.21582326292991638,0.1967567652463913,,,,,,
1764808546.743936,,,,,,,-0.02529609203338623,0.10197794437408447,0.053389206528663635,-0.13885712623596191,0.18166300654411316,-0.34757065773010254
1764808546.746774,0.6903028160631656,0.14499883804321287,-0.5850713402628899,0.33179834485054016,0.2659356892108917,0.23270517587661743,,,,,,
1764808546.753966,,,,,,,-0.0332220196723938,0.13815957307815552,0.06682173907756805,-0.11383464187383652,0.19749096035957336,-0.3987419009208679
1764808546.756826,0.8352215746074915,0.18259294790029526,-0.6555249326705932,0.40105587244033813,0.30329135060310364,0.29273077845573425,,,,,,
1764808546.763996,,,,,,,-0.050911903381347656,0.171575129032135,0.07143771648406982,-0.08540859073400497,0.2403380274772644,-0.46172353625297546
1764808546.766878,0.8656026843458413,0.10233107818365096,-0.6165216136027127,0.47496497631073,0.31812408566474915,0.3627660572528839,,,,,,
1764808546.774026,,,,,,,-0.06930339336395264,0.17813712358474731,0.06748916208744049,-0.09393736720085144,0.29001665115356445,-0.5274415612220764
1764808546.77693,0.9280003960698843,0.02370411619246006,-0.5286812714558095,0.5428282022476196,0.2897895276546478,0.4330563545227051,,,,,,
1764808546.784056,,,,,,,-0.0733538269996643,0.17476677894592285,0.06776012480258942,-0.1668161004781723,0.3197827935218811,-0.6217542290687561
1764808546.786982,0.9944655033633112,-0.028166356298327443,-0.5442074149549007,0.5966511964797974,0.2577485144138336,0.49498870968818665,,,,,,
1764808546.794087,,,,,,,-0.06419456005096436,0.16617286205291748,0.06938566267490387,-0.26376885175704956,0.344855397939682,-0.7255327701568604
1764808546.797035,1.1535215083315968,-0.13129472233951092,-0.5868991402119398,0.6409158706665039,0.23079849779605865,0.5557640194892883,,,,,,
1764808546.804117,,,,,,,-0.05686545372009277,0.16142654418945312,0.07690072059631348,-0.3938150107860565,0.3666493594646454,-0.7982690334320068
1764808546.807087,1.3211869362130761,-0.2490793902426958,-0.6694114192038774,0.6900644898414612,0.21988274157047272,0.6196561455726624,,,,,,
1764808546.814147,,,,,,,-0.05914783477783203,0.16814863681793213,0.08216199278831482,-0.4992735683917999,0.3860267996788025,-0.8613149523735046
1764808546.817138,1.4235484095349906,-0.38480011233091355,-0.6522369970411062,0.728395938873291,0.20560483634471893,0.6863303780555725,,,,,,
1764808546.824177,,,,,,,-0.07126480340957642,0.1683487892150879,0.07194671034812927,-0.5239826440811157,0.4350513219833374,-0.9432838559150696
1764808546.82719,1.5513953295081853,-0.39204000045657156,-0.7065718138188123,0.7664151787757874,0.15802159905433655,0.7326480746269226,,,,,,
1764808546.834207,,,,,,,-0.09253156185150146,0.19091910123825073,0.07449471950531006,-0.5380910038948059,0.5086483359336853,-1.0223156213760376
1764808546.837243,1.6582523606836794,-0.3654956924021244,-0.8732447235316038,0.828819990158081,0.10428012907505035,0.7789662480354309,,,,,,
1764808546.844237,,,,,,,-0.10946488380432129,0.23408091068267822,0.09050300717353821,-0.4914744794368744,0.5826131105422974,-1.0769480466842651
1764808546.847295,1.7569506353229283,-0.4093225591689348,-0.9523276125967503,0.890404224395752,0.08273356407880783,0.829245924949646,,,,,,
1764808546.854267,,,,,,,-0.12130951881408691,0.2649233341217041,0.11481174826622009,-0.36665233969688416,0.6632674336433411,-1.1065527200698853
1764808546.857347,1.8851058905929325,-0.42973289451301094,-1.1632757173657418,0.9516832232475281,0.08866898715496063,0.9044707417488098,,,,,,
1764808546.864297,,,,,,,-0.1313098669052124,0.29090410470962524,0.13403430581092834,-0.17603501677513123,0.7550868391990662,-1.1552743911743164
1764808546.867399,1.8162497965097426,-0.3996376159787178,-1.264565177541971,1.0094789266586304,0.114138662815094,0.9969537854194641,,,,,,
1764808546.874327,,,,,,,-0.13423627614974976,0.3179529905319214,0.11890232563018799,0.020235471427440643,0.8624117374420166,-1.2207242250442505
1764808546.877451,1.5491180322259663,-0.24991525654494762,-1.2372305958926677,1.0198489427566528,0.15909579396247864,1.0668861865997314,,,,,,
1764808546.884358,,,,,,,-0.11378943920135498,0.33373260498046875,0.1058349609375,0.1973135769367218,0.9562801718711853,-1.2806267738342285
1764808546.887503,1.400015265995264,0.13070318618714807,-1.397472449644655,1.0010650157928467,0.24528926610946655,1.112192988395691,,,,,,
1764808546.894388,,,,,,,-0.06368374824523926,0.32984089851379395,0.12624132633209229,0.26407256722450256,1.0028654336929321,-1.3476604223251343
1764808546.897555,1.4772224243164063,0.5838023432403803,-1.6909351714931427,1.0046032667160034,0.3444308042526245,1.1501784324645996,,,,,,
1764808546.904418,,,,,,,-0.001048445701599121,0.32298070192337036,0.16266819834709167,0.2241044044494629,1.006328821182251,-1.4172214269638062
1764808546.907607,1.8185253402262924,1.0112450809895992,-1.8419138145983218,1.0581094026565552,0.3966772258281708,1.2030647993087769,,,,,,
1764808546.914448,,,,,,,0.04546910524368286,0.2953408360481262,0.20865130424499512,0.09702683985233307,1.000174641609192,-1.5071792602539062
1764808546.917659,2.276765367299318,1.349319097980857,-1.730647150287032,1.155873417854309,0.37105751037597656,1.2840526103973389,,,,,,
1764808546.924478,,,,,,,0.055542171001434326,0.2742007374763489,0.259658545255661,-0.09424751996994019,1.0214143991470337,-1.631754755973816
1764808546.927711,2.624955120113492,1.4235837731093168,-1.5307646294116972,1.2849000692367554,0.27768227458000183,1.3895422220230103,,,,,,
1764808546.934508,,,,,,,0.046112656593322754,0.284933865070343,0.27149486541748047,-0.26082417368888855,1.074835181236267,-1.758611798286438
1764808546.937763,2.7884312796115873,1.3035790910691023,-1.3992447200141847,1.4045106172561646,0.1716661900281906,1.4943915605545044,,,,,,
1764808546.944538,,,,,,,0.035367608070373535,0.3134503960609436,0.24690115451812744,-0.39710238575935364,1.159330129623413,-1.8808172941207886
1764808546.947816,2.897825135788321,1.1544149500399827,-1.3234165949612855,1.5081273317337036,0.11462366580963135,1.5820847749710083,,,,,,
1764808546.954568,,,,,,,0.023361504077911377,0.3560643792152405,0.2389775812625885,-0.48107975721359253,1.2906386852264404,-1.9683680534362793
1764808546.957868,2.9640462051928043,0.9763853645324706,-1.245357495985925,1.6240218877792358,0.10297040641307831,1.6687781810760498,,,,,,
1764808546.964599,,,,,,,0.012539982795715332,0.3954054117202759,0.24168038368225098,-0.44205939769744873,1.4212599992752075,-2.0291287899017334
1764808546.96792,2.8976988790601492,0.6502350095689297,-1.21435211686939,1.749831199645996,0.1252376288175583,1.7755885124206543,,,,,,
1764808546.974629,,,,,,,-0.005682647228240967,0.4268749952316284,0.22832730412483215,-0.3335587978363037,1.5454216003417969,-2.1267175674438477
1764808546.977973,2.70356863810122,0.31397651756703854,-1.2103653853207825,1.8623182773590088,0.19377462565898895,1.8948359489440918,,,,,,
1764808546.984659,,,,,,,-0.04064381122589111,0.47369086742401123,0.2278314232826233,-0.18248486518859863,1.7043545246124268,-2.243739604949951
1764808546.988024,2.4843191534548996,0.1265063190191984,-1.345892922924459,1.9623568058013916,0.3318108022212982,2.0168004035949707,,,,,,
1764808546.994688,,,,,,,-0.0694231390953064,0.5304667949676514,0.22873899340629578,0.035678476095199585,1.8865898847579956,-2.3447048664093018
1764808546.998076,2.437467385908961,0.1333645143508911,-1.450344354262948,2.04781174659729,0.5058444738388062,2.1431260108947754,,,,,,
1764808547.004718,,,,,,,-0.07104402780532837,0.5756796002388,0.21831569075584412,0.2321593165397644,2.0549497604370117,-2.4633548259735107
1764808547.008128,2.5819950993090868,0.27676059337258335,-1.5543448269635438,2.1078460216522217,0.6812834143638611,2.2657551765441895,,,,,,
1764808547.014748,,,,,,,-0.04092669486999512,0.5886632204055786,0.21863439679145813,0.36872440576553345,2.183901309967041,-2.5872368812561035
1764808547.01818,2.8962229612886903,0.41837855680584907,-1.6013514928102492,2.134946823120117,0.8108586072921753,2.383309841156006,,,,,,
1764808547.024778,,,,,,,0.02070966362953186,0.5645524859428406,0.24097749590873718,0.4061809480190277,2.2722373008728027,-2.700258255004883
1764808547.028232,3.3875410820990797,0.716794517147541,-1.8195359785735605,2.1736791133880615,0.8877246379852295,2.4870872497558594,,,,,,
1764808547.034808,,,,,,,0.08284828066825867,0.5379827618598938,0.3040800094604492,0.34248656034469604,2.3183906078338623,-2.8047211170196533
1764808547.038285,3.9906028370827435,1.219799568620324,-2.0629156958699224,2.2723450660705566,0.9283629059791565,2.6096320152282715,,,,,,
1764808547.044838,,,,,,,0.12134531140327454,0.5106343030929565,0.35501524806022644,0.2951344847679138,2.3661766052246094,-2.8958966732025146
1764808547.048336,4.480281373992562,1.5498545298069715,-1.909244014288485,2.389641284942627,0.8894038200378418,2.780235528945923,,,,,,
1764808547.054869,,,,,,,0.13457012176513672,0.4876524806022644,0.3585590720176697,0.21005067229270935,2.4560675621032715,-2.993234634399414
1764808547.058388,4.477950885218382,1.5712082834810017,-1.6258458825975655,2.478074789047241,0.783287525177002,2.9572083950042725,,,,,,
1764808547.064899,,,,,,,0.1349414885044098,0.48935043811798096,0.3557274043560028,0.16526055335998535,2.5721163749694824,-3.086897373199463
1764808547.068441,4.196050006347894,1.3995558317899703,-1.5006310646936296,2.552638292312622,0.6844464540481567,3.0895919799804688,,,,,,
1764808547.074929,,,,,,,0.14420729875564575,0.5070005655288696,0.3556012809276581,0.14891386032104492,2.6860179901123047,-3.1573216915130615
1764808547.078493,3.839381763523817,1.328387661372125,-1.429109258532524,2.6253342628479004,0.6283608078956604,3.1961119174957275,,,,,,
1764808547.084959,,,,,,,0.1656949520111084,0.5078299045562744,0.3341689705848694,0.182233989238739,2.803210973739624,-3.2066853046417236
1764808547.088545,3.35454949760139,1.4237909861192106,-1.3819541241258382,2.6672916412353516,0.6295040845870972,3.282961368560791,,,,,,
1764808547.094989,,,,,,,0.19367194175720215,0.47467637062072754,0.32106608152389526,0.22044335305690765,2.9079623222351074,-3.287867546081543
1764808547.098598,2.9800393086165187,1.589059874252975,-1.519230258962512,2.7010927200317383,0.6486788392066956,3.3551852703094482,,,,,,
1764808547.105019,,,,,,,0.22448085248470306,0.47585779428482056,0.3623613715171814,0.28347983956336975,3.0151402950286865,-3.348653554916382
1764808547.108649,2.870997334617376,1.9867635995596646,-1.810247633485496,2.766458511352539,0.7048150300979614,3.4439523220062256,,,,,,
1764808547.115049,,,,,,,0.26540014147758484,0.5173810124397278,0.40715664625167847,0.4118052124977112,3.08840012550354,-3.3973987102508545
1764808547.118701,2.8463696738392112,2.4646681120455263,-2.0163520976155995,2.837374687194824,0.8116260170936584,3.5586140155792236,,,,,,
1764808547.125079,,,,,,,0.3039257824420929,0.5306362509727478,0.4201982617378235,0.5937353372573853,3.1534676551818848,-3.441147565841675
1764808547.128753,2.7742010942071675,2.5667843784347175,-1.914016635517776,2.8834309577941895,0.9302858114242554,3.6904799938201904,,,,,,
1764808547.135109,,,,,,,0.32808005809783936,0.49222129583358765,0.40426990389823914,0.7003926038742065,3.2479171752929688,-3.490086078643799
1764808547.138805,2.5256705700188875,2.4138740366145965,-1.6174568244367837,2.902029275894165,1.0186208486557007,3.798889398574829,,,,,,
1764808547.14514,,,,,,,0.3486854135990143,0.4200703501701355,0.3975749611854553,0.7678195834159851,3.343916177749634,-3.5407538414001465
1764808547.148857,2.208230760255456,2.3175540354140103,-1.3845572923615574,2.9066972732543945,1.0362472534179688,3.8562166690826416,,,,,,
1764808547.15517,,,,,,,0.3754735291004181,0.3551042675971985,0.4247041642665863,0.7145256996154785,3.4511795043945312,-3.630504846572876
1764808547.158909,2.0623060395389796,2.6756729154378176,-1.552582201205194,2.951913833618164,0.9752393364906311,3.8918936252593994,,,,,,
1764808547.1652,,,,,,,0.4155585765838623,0.35867464542388916,0.49190753698349,0.5893672108650208,3.5430238246917725,-3.726299285888672
1764808547.168962,2.2214748572319745,3.5516733674183487,-1.801694616934657,3.0268046855926514,0.9225713610649109,3.9657907485961914,,,,,,
1764808547.17523,,,,,,,0.483359158039093,0.3768947124481201,0.528951108455658,0.48314228653907776,3.620637893676758,-3.748060941696167
1764808547.179014,2.386340425261855,4.2535511782020325,-1.9205778937295077,3.0997962951660156,0.9218010306358337,4.1059489250183105,,,,,,
1764808547.18526,,,,,,,0.5490820407867432,0.35226863622665405,0.5128467679023743,0.41705432534217834,3.6742799282073975,-3.8104405403137207
1764808547.189066,2.3320786737203596,4.478270910952985,-1.7086097982630133,3.147106170654297,0.92164146900177,4.266200542449951,,,,,,
1764808547.19529,,,,,,,0.5870159268379211,0.3211315870285034,0.5173372030258179,0.4459286332130432,3.73106050491333,-3.791916847229004
1764808547.199118,2.033663882422447,4.26066247151196,-1.5205232213824986,3.150031566619873,0.9044240713119507,4.392238616943359,,,,,,
1764808547.20532,,,,,,,0.6052902340888977,0.31721603870391846,0.487263560295105,0.5542013049125671,3.7597272396087646,-3.7438440322875977
1764808547.20917,1.5430781675398348,3.816755505695939,-1.4515616210982203,3.1241116523742676,0.8384684920310974,4.446263790130615,,,,,,
1764808547.21535,,,,,,,0.6033475399017334,0.3023880124092102,0.4331790506839752,0.7485730051994324,3.8023059368133545,-3.7376585006713867
1764808547.219223,1.1549883660137652,3.61646118914932,-1.349067169046402,3.072661876678467,0.7282248139381409,4.42644739151001,,,,,,
1764808547.22538,,,,,,,0.6026570796966553,0.23897314071655273,0.420556902885437,0.8194099068641663,3.839322328567505,-3.6936519145965576
1764808547.229275,0.7044634433627128,3.7085242635577913,-1.433077869902551,3.0217628479003906,0.6013209223747253,4.3512983322143555,,,,,,
1764808547.235411,,,,,,,0.6322444677352905,0.1352689266204834,0.40585270524024963,0.72962486743927,3.8057448863983154,-3.675339937210083
1764808547.239326,0.24820494549572467,3.9281712230890986,-1.5315157400399446,2.993096113204956,0.47790125012397766,4.261588096618652,,,,,,
1764808547.245441,,,,,,,0.6630016565322876,0.02524930238723755,0.41070500016212463,0.5563457608222961,3.7457244396209717,-3.6374247074127197
1764808547.249378,-0.226792155110836,4.1866912263721225,-1.601247447913885,2.9823215007781982,0.41595157980918884,4.184736251831055,,,,,,
1764808547.255471,,,,,,,0.6775394082069397,-0.04871225357055664,0.426329106092453,0.3824782371520996,3.7281625270843506,-3.5388376712799072
1764808547.25943,-0.6737456490159034,4.373446846909821,-1.6597300320208073,2.993668556213379,0.4227226972579956,4.120689868927002,,,,,,
1764808547.265501,,,,,,,0.6701803207397461,-0.07231670618057251,0.4333503842353821,0.20263390243053436,3.7182834148406982,-3.469479560852051
1764808547.269483,-1.0187935966730117,4.324888275445997,-1.7354203560382127,3.0161728858947754,0.4425818920135498,4.052966594696045,,,,,,
1764808547.275531,,,,,,,0.6490849852561951,-0.06203162670135498,0.44333308935165405,0.11713968217372894,3.702613115310669,-3.368712902069092
1764808547.279536,-1.168510110887885,4.057994411571324,-1.6840652857236562,3.0404012203216553,0.4828512966632843,3.9662489891052246,,,,,,
1764808547.285561,,,,,,,0.6272695064544678,-0.05202841758728027,0.4203907251358032,0.2150593250989914,3.7312099933624268,-3.216075897216797
1764808547.289587,-1.227138240945339,3.6701790430724617,-1.3991909440003334,3.0427088737487793,0.5410560369491577,3.8702609539031982,,,,,,
1764808547.295591,,,,,,,0.595761775970459,-0.06054258346557617,0.3752402067184448,0.3744793236255646,3.762885808944702,-3.1137683391571045
1764808547.299639,-1.437666074475646,3.2639883521884676,-1.086849918680638,3.0184450149536133,0.5847069621086121,3.7569799423217773,,,,,,
1764808547.305621,,,,,,,0.5639682412147522,-0.06845659017562866,0.34780168533325195,0.5332972407341003,3.7839395999908447,-2.983306407928467
1764808547.309691,-1.694848691675067,2.920590509825945,-0.8791845619093627,2.9725630283355713,0.6026622653007507,3.6187143325805664,,,,,,
1764808547.315651,,,,,,,0.5573422908782959,-0.07876449823379517,0.29950058460235596,0.7073602676391602,3.7691361904144287,-2.8493337631225586
1764808547.319743,-1.789642944613099,2.731418768057227,-0.9267598944894969,2.915966510772705,0.6260058283805847,3.4934332370758057,,,,,,
1764808547.325682,,,,,,,0.5535163879394531,-0.09695738554000854,0.26615190505981445,0.7726655006408691,3.7298450469970703,-2.773573398590088
1764808547.329795,-1.742154048207402,2.7400550789773463,-1.0147971474479884,2.855330467224121,0.6726287603378296,3.3873510360717773,,,,,,
1764808547.335712,,,,,,,0.5456438064575195,-0.11855566501617432,0.26589059829711914,0.7822200059890747,3.6499826908111572,-2.6160361766815186
1764808547.339847,-1.4986428134858607,2.5797984660476443,-1.1601632113683968,2.8181326389312744,0.7241085767745972,3.294539213180542,,,,,,
1764808547.345742,,,,,,,0.5315023064613342,-0.16483086347579956,0.2579972743988037,0.7896353006362915,3.548968553543091,-2.4638919830322266
1764808547.3499,-1.281902681311965,2.171671254143119,-1.259708969682455,2.800654172897339,0.7581437826156616,3.1950414180755615,,,,,,
1764808547.355772,,,,,,,0.46670645475387573,-0.21324211359024048,0.24995946884155273,0.7316537499427795,3.507689952850342,-2.3817834854125977
1764808547.359952,-1.1148270360171795,1.7985592415183782,-1.1375853957921267,2.7643301486968994,0.7069969177246094,3.0854928493499756,,,,,,
1764808547.365802,,,,,,,0.3924463987350464,-0.2179695963859558,0.2742123007774353,0.6007628440856934,3.4896039962768555,-2.335273504257202
1764808547.370003,-0.8106903599411248,1.8731676155179737,-1.0852069737792014,2.6961824893951416,0.6045325994491577,2.983660936355591,,,,,,
1764808547.375832,,,,,,,0.37195080518722534,-0.1352553367614746,0.29958438873291016,0.5692550539970398,3.4687111377716064,-2.234283924102783
1764808547.380056,-0.46012335660159587,2.3504344146221876,-1.1707809784293175,2.6276638507843018,0.5410352349281311,2.9211204051971436,,,,,,
1764808547.385862,,,,,,,0.4047762155532837,-0.047965288162231445,0.2465776801109314,0.6484582424163818,3.41464900970459,-2.2415099143981934
1764808547.390107,-0.3350087842017412,2.7040128747373817,-1.0592179615199566,2.5455880165100098,0.5103644132614136,2.9034998416900635,,,,,,
1764808547.395892,,,,,,,0.4315699338912964,-0.006301999092102051,0.2224368453025818,0.6662641763687134,3.3238186836242676,-2.2237889766693115
1764808547.400161,-0.42605858991444107,2.729624870377779,-0.9759142398893833,2.4606144428253174,0.48739781975746155,2.911031723022461,,,,,,
1764808547.405922,,,,,,,0.4543999433517456,-0.0031122565269470215,0.20026524364948273,0.6808542609214783,3.2204368114471436,-2.1861114501953125
1764808547.410213,-0.5892027409791946,2.389617254975438,-1.032636097934097,2.3980610370635986,0.471781849861145,2.90751576423645,,,,,,
1764808547.415953,,,,,,,0.4200706481933594,-0.03033888339996338,0.2128056436777115,0.6051005125045776,3.153172492980957,-2.2258927822113037
1764808547.420264,-0.6692687958627939,2.232921549397707,-1.1880009932994842,2.3429765701293945,0.46246302127838135,2.869703769683838,,,,,,
1764808547.425983,,,,,,,0.37728017568588257,-0.04629504680633545,0.26460790634155273,0.5179197788238525,3.1064350605010986,-2.175877809524536
1764808547.430316,-0.5698047975480556,2.3655694399118423,-1.243191403993219,2.307298421859741,0.4369392693042755,2.8194046020507812,,,,,,
1764808547.436013,,,,,,,0.3681618571281433,-0.06101563572883606,0.24396052956581116,0.4335651695728302,3.065138816833496,-2.1651105880737305
1764808547.440368,-0.4116185611516237,2.4741239226549863,-0.8949356002055108,2.2634987831115723,0.3586261570453644,2.769188642501831,,,,,,
1764808547.446043,,,,,,,0.3652716875076294,-0.07791554927825928,0.2125495970249176,0.3570895493030548,3.027531147003174,-2.130310535430908
1764808547.45042,-0.49124154844284057,2.5839514940738675,-0.6145766900800168,2.1933088302612305,0.26057177782058716,2.719191551208496,,,,,,
1764808547.456073,,,,,,,0.3943617343902588,-0.09904205799102783,0.19392040371894836,0.3339909315109253,2.968554973602295,-2.073551654815674
1764808547.460472,-0.8253869938135147,2.711283742523193,-0.634715661136806,2.1204564571380615,0.1899431198835373,2.645045757293701,,,,,,
1764808547.466103,,,,,,,0.4315318465232849,-0.10064029693603516,0.18967726826667786,0.2894921600818634,2.8684215545654297,-2.014596700668335
1764808547.470525,-1.1261673451989889,2.8035879322111605,-0.7329656074866652,2.056521415710449,0.1864415854215622,2.564274549484253,,,,,,
1764808547.476133,,,,,,,0.4587147831916809,-0.0854945182800293,0.14970871806144714,0.283219575881958,2.73828125,-1.9149081707000732
1764808547.480577,-1.2618290305763482,2.4161902046024797,-0.6091891518227756,2.0019643306732178,0.18579159677028656,2.4895293712615967,,,,,,
1764808547.486163,,,,,,,0.4306625723838806,-0.1098816990852356,0.1202438473701477,0.3187709152698517,2.637751579284668,-1.8636194467544556
1764808547.490629,-1.4268541730821132,2.2098253359705207,-0.44509500655680895,1.9219449758529663,0.17675867676734924,2.3831443786621094,,,,,,
1764808547.496193,,,,,,,0.3740520477294922,-0.13028165698051453,0.11920449137687683,0.36966511607170105,2.600130319595337,-1.7754281759262085
1764808547.500681,-1.495180982594192,2.5162989305615424,-0.5157698404997587,1.8450504541397095,0.17193974554538727,2.2550480365753174,,,,,,
1764808547.506224,,,,,,,0.3792531490325928,-0.1303868293762207,0.09545710682868958,0.4020555317401886,2.4986772537231445,-1.7007520198822021
1764808547.510733,-1.509748437128961,2.7325667690485713,-0.45944823381900785,1.7628852128982544,0.15154686570167542,2.118516206741333,,,,,,
1764808547.516254,,,,,,,0.4307924509048462,-0.16578984260559082,0.07034707069396973,0.33262208104133606,2.3330955505371094,-1.615654706954956
1764808547.520785,-1.5236448605343698,2.732984702199697,-0.3764847039282322,1.6603779792785645,0.1026066243648529,1.9803931713104248,,,,,,
1764808547.526284,,,,,,,0.4811496138572693,-0.2051464319229126,0.06272339820861816,0.17225611209869385,2.1641628742218018,-1.5557918548583984
1764808547.530838,-1.4156439200207591,2.7871161053597926,-0.5569464850187301,1.5322335958480835,0.07018104195594788,1.8327850103378296,,,,,,
1764808547.536314,,,,,,,0.5027819871902466,-0.19790133833885193,0.11100628972053528,0.012899084016680717,1.9881978034973145,-1.4562345743179321
1764808547.54089,-1.0566998412191868,3.4735049628496166,-0.586660070759058,1.4544641971588135,0.06520336121320724,1.7112675905227661,,,,,,
1764808547.546344,,,,,,,0.5051974058151245,-0.177659809589386,0.07666152715682983,-0.07003547996282578,1.865539789199829,-1.3827877044677734
1764808547.550941,-0.7804109570115805,3.773464645501971,-0.05289104771018028,1.3580467700958252,0.020918190479278564,1.632830262184143,,,,,,
1764808547.556374,,,,,,,0.4743736982345581,-0.1656186282634735,0.026292800903320312,-0.1212630420923233,1.7762396335601807,-1.3096836805343628
1764808547.560993,-0.787114546303451,3.543766247555613,0.26583821734189983,1.229650855064392,-0.04374966770410538,1.5647366046905518,,,,,,
1764808547.566404,,,,,,,0.4859299063682556,-0.11930012702941895,0.00047194957733154297,-0.05408534035086632,1.6327874660491943,-1.2101128101348877
1764808547.571045,-1.0793638007089494,3.466331710219383,0.4339654175162315,1.0912264585494995,-0.09884540736675262,1.4580520391464233,,,,,,
1764808547.576434,,,,,,,0.5176759958267212,-0.08872032165527344,-0.04344898462295532,0.031073229387402534,1.4765821695327759,-1.1306936740875244
1764808547.581097,-1.4079273542940616,3.5721921315729617,0.5042448224008083,0.9468430280685425,-0.13905347883701324,1.3167903423309326,,,,,,
1764808547.586464,,,,,,,0.5364367365837097,-0.10838082432746887,-0.047607600688934326,0.08401447534561157,1.3077741861343384,-1.0365567207336426
1764808547.591149,-1.662311280685663,4.0078158376902335,0.5154471844166517,0.8231421709060669,-0.1398758590221405,1.1545300483703613,,,,,,
1764808547.596495,,,,,,,0.5594049692153931,-0.15724539756774902,-0.06080693006515503,0.07122880965471268,1.1563005447387695,-0.9190554618835449
1764808547.601201,-1.819729163058102,4.297909959888458,0.6525798191294073,0.7029542922973633,-0.11260177195072174,0.9946703314781189,,,,,,
1764808547.606525,,,,,,,0.5953719615936279,-0.2031063735485077,-0.08463448286056519,-0.023150693625211716,0.9822044372558594,-0.8365012407302856
1764808547.611254,-1.9013558913871644,4.311377928748726,0.71567749581635,0.5622656345367432,-0.08069922775030136,0.8132174611091614,,,,,,
1764808547.616555,,,,,,,0.6469036936759949,-0.2041930854320526,-0.05545777082443237,-0.18203935027122498,0.7527762651443481,-0.7118080258369446
1764808547.621306,-1.615467988707125,4.753884380117058,0.6922197556003927,0.4522853493690491,-0.08380069583654404,0.6372264623641968,,,,,,
1764808547.626585,,,,,,,0.693719208240509,-0.20287805795669556,-0.07843846082687378,-0.336252361536026,0.5417402386665344,-0.5812766551971436
1764808547.631358,-1.3788953210771082,4.891200262442231,0.8762807302266359,0.3322542905807495,-0.12766481935977936,0.47999826073646545,,,,,,
1764808547.636615,,,,,,,0.6752813458442688,-0.24460789561271667,-0.07852309942245483,-0.5074319243431091,0.37368783354759216,-0.44811776280403137
1764808547.64141,-1.336746908916533,4.949580555218458,1.0694248827576636,0.21928535401821136,-0.13779789209365845,0.3203671872615814,,,,,,
1764808547.646645,,,,,,,0.6567002534866333,-0.2529933750629425,-0.0899120569229126,-0.5427401065826416,0.2140907198190689,-0.2610437572002411
1764808547.651463,-1.5222732799202203,4.881733930438757,1.6047402584657071,0.10786401480436325,-0.12918975949287415,0.1544908583164215,,,,,,
1764808547.656675,,,,,,,0.6585352420806885,-0.24805831909179688,-0.16153013706207275,-0.46852415800094604,0.04978698864579201,-0.04789293557405472
1764808547.661515,-2.127622853580117,4.636783602824807,2.091624780742824,-0.052984144538640976,-0.12607824802398682,-0.04984022304415703,,,,,,
1764808547.666705,,,,,,,0.6774187684059143,-0.23447993397712708,-0.24708032608032227,-0.31282269954681396,-0.14568530023097992,0.16956615447998047
1764808547.671566,-2.769531348830461,4.480428088986874,2.201888697752356,-0.2609248459339142,-0.11987761408090591,-0.31504154205322266,,,,,,
1764808547.676735,,,,,,,0.7324429750442505,-0.22211211919784546,-0.32593321800231934,-0.1525905579328537,-0.3962482810020447,0.3892054259777069
1764808547.681618,-2.9882220305502414,4.42153809312284,2.015261964291334,-0.4840543270111084,-0.07982175797224045,-0.6232231259346008,,,,,,
1764808547.686766,,,,,,,0.8067731857299805,-0.24467995762825012,-0.34514641761779785,-0.10357242077589035,-0.7436438202857971,0.6089508533477783
1764808547.69167,-2.7240143370196224,4.249376522865891,1.5693869132727383,-0.6533253788948059,-0.05962327495217323,-0.9246854782104492,,,,,,
1764808547.696796,,,,,,,0.8230853080749512,-0.345674067735672,-0.29454052448272705,-0.19674821197986603,-1.0896371603012085,0.8378154635429382
1764808547.701722,-2.28670223942399,3.97639778611958,1.105607372251153,-0.7595360279083252,-0.07033532857894897,-1.1925297975540161,,,,,,
1764808547.706826,,,,,,,0.7287319302558899,-0.4558882713317871,-0.21525263786315918,-0.4073752164840698,-1.333038091659546,1.0552830696105957
1764808547.711774,-1.8623288261175155,3.692047760531306,0.7897317430645227,-0.8593310713768005,-0.10758043825626373,-1.41594660282135,,,,,,
1764808547.716856,,,,,,,0.6086155772209167,-0.43967342376708984,-0.16001123189926147,-0.5257993340492249,-1.5146009922027588,1.257991909980774
1764808547.721827,-1.6989125801131129,3.4212270786017176,0.5216223659202456,-0.968972384929657,-0.1497567594051361,-1.6185190677642822,,,,,,
1764808547.726887,,,,,,,0.5440011620521545,-0.3479491174221039,-0.12525635957717896,-0.510474681854248,-1.6657404899597168,1.428712010383606
1764808547.731879,-1.8288558878436683,3.4705198095589873,0.257204829031229,-1.0820881128311157,-0.14106659591197968,-1.8074285984039307,,,,,,
1764808547.736916,,,,,,,0.5377488136291504,-0.26782816648483276,-0.07503843307495117,-0.46601876616477966,-1.8223716020584106,1.5542641878128052
1764808547.741931,-1.9899878223031757,3.7528105645298955,-0.051310792781412595,-1.1860880851745605,-0.1196025088429451,-1.9680904150009155,,,,,,
1764808547.746946,,,,,,,0.5628663897514343,-0.22322240471839905,-0.028400778770446777,-0.4330618977546692,-1.9894580841064453,1.6478389501571655
1764808547.751983,-1.9422776843622325,3.7724732963770626,-0.4443628928899765,-1.2984225749969482,-0.13552793860435486,-2.1009609699249268,,,,,,
1764808547.756976,,,,,,,0.5827277302742004,-0.2004530131816864,-0.004061520099639893,-0.44188129901885986,-2.172678232192993,1.7374459505081177
1764808547.762035,-1.571375749002397,3.199965669611096,-0.84965926528275,-1.3815888166427612,-0.1820700317621231,-2.2171268463134766,,,,,,
1764808547.767006,,,,,,,0.5434808135032654,-0.20100802183151245,0.04091885685920715,-0.4616140127182007,-2.3229823112487793,1.7921158075332642
1764808547.772087,-1.168387069030106,2.9475977592170235,-0.8657666427358984,-1.465735673904419,-0.2356211394071579,-2.3317832946777344,,,,,,
1764808547.777037,,,,,,,0.4519972801208496,-0.20871898531913757,0.09124982357025146,-0.5290442705154419,-2.3526668548583984,1.8536442518234253
1764808547.78214,-0.9534642154112458,3.2314445114582777,-0.7838307023271918,-1.5520827770233154,-0.3143041729927063,-2.4417107105255127,,,,,,
1764808547.787067,,,,,,,0.41481494903564453,-0.2121681272983551,0.11157885193824768,-0.5715206265449524,-2.375213384628296,1.9510024785995483
1764808547.792192,-1.0927493519827722,3.5901334464550017,-0.6565458001509309,-1.6380239725112915,-0.3915209174156189,-2.558117628097534,,,,,,
1764808547.797097,,,,,,,0.46420180797576904,-0.2314833104610443,0.098682701587677,-0.6234254240989685,-2.4334557056427,2.048860549926758
1764808547.802243,-1.4747744466423987,3.7745916037052867,-0.7241299746021628,-1.7332558631896973,-0.4516829550266266,-2.6819944381713867,,,,,,
1764808547.807127,,,,,,,0.5576151013374329,-0.22752884030342102,0.1082170307636261,-0.6690762639045715,-2.5894150733947754,2.09372878074646
1764808547.812295,-1.7384134003743528,3.741971775129437,-1.2372884635597468,-1.8409812450408936,-0.490476131439209,-2.8157026767730713,,,,,,
1764808547.817157,,,,,,,0.6272888779640198,-0.1986960768699646,0.18093883991241455,-0.6737548112869263,-2.774238348007202,2.1886682510375977
1764808547.822347,-1.6343535987019537,4.04506741771996,-1.6829999945797025,-1.9151654243469238,-0.4648493826389313,-2.9395267963409424,,,,,,
1764808547.827187,,,,,,,0.6136119365692139,-0.1608346700668335,0.2178753912448883,-0.6256424188613892,-2.869076728820801,2.26682710647583
1764808547.8324,-1.2763310186594723,4.005558414152264,-2.059083862622082,-1.96632719039917,-0.4329420328140259,-3.031805992126465,,,,,,
1764808547.837217,,,,,,,0.541592001914978,-0.17013907432556152,0.2502087354660034,-0.5735287070274353,-2.9666266441345215,2.3362810611724854
1764808547.842453,-0.9637199442267418,3.2297102350115776,-2.4892729764699935,-1.9832090139389038,-0.45113083720207214,-3.148730993270874,,,,,,
1764808547.847247,,,,,,,0.4526990056037903,-0.1997159719467163,0.33150675892829895,-0.5338563919067383,-3.0011351108551025,2.429187297821045
1764808547.852504,-0.611017097902298,2.959197596117854,-2.524011112374067,-1.9842602014541626,-0.4533436596393585,-3.2793328762054443,,,,,,
1764808547.857277,,,,,,,0.3748542070388794,-0.16597843170166016,0.36822548508644104,-0.4942800998687744,-2.984574556350708,2.553745746612549
1764808547.862556,-0.33164252263903615,2.8328087659984824,-2.5056425119906662,-2.029942512512207,-0.5210366249084473,-3.407641887664795,,,,,,
1764808547.867307,,,,,,,0.35439127683639526,-0.15041089057922363,0.34983769059181213,-0.414734423160553,-3.0164546966552734,2.644315004348755
1764808547.872608,-0.25158874271512033,2.8731004443764685,-2.409838935879618,-2.076808214187622,-0.6629423499107361,-3.5774519443511963,,,,,,
1764808547.877338,,,,,,,0.36362308263778687,-0.17003411054611206,0.350551962852478,-0.43035420775413513,-2.9455137252807617,2.7436912059783936
1764808547.88266,-0.09529168106615543,3.6586820820242165,-1.995302879846096,-2.095304489135742,-0.7727890610694885,-3.7375433444976807,,,,,,
1764808547.887368,,,,,,,0.4312499761581421,-0.1372421383857727,0.3726418614387512,-0.5043650269508362,-2.909716844558716,2.8797097206115723
1764808547.892712,-0.053771922197937964,4.667017413046956,-1.6151451864935458,-2.071730136871338,-0.8022830486297607,-3.8382022380828857,,,,,,
1764808547.897398,,,,,,,0.5319276452064514,-0.1468573808670044,0.39111435413360596,-0.5904569625854492,-2.92116379737854,3.063236713409424
1764808547.902765,-0.25271803900599477,5.065644390678406,-1.5100493197716771,-2.0072128772735596,-0.7795121073722839,-3.900192975997925,,,,,,
1764808547.907428,,,,,,,0.5978952646255493,-0.1706973910331726,0.37019968032836914,-0.7727389335632324,-2.9418249130249023,3.1474993228912354
1764808547.912817,-0.2734627208709717,4.774885667091608,-1.7084943551898002,-1.9215881824493408,-0.7853806614875793,-3.972329616546631,,,,,,
1764808547.917458,,,,,,,0.5863312482833862,-0.10382753610610962,0.4442625045776367,-0.9949520826339722,-2.957988977432251,3.228055953979492
1764808547.922868,0.12093290280103683,4.442639917862415,-1.994896052610874,-1.8419556617736816,-0.7827001810073853,-4.037459850311279,,,,,,
1764808547.927488,,,,,,,0.5462448000907898,-0.012053608894348145,0.4463436007499695,-1.0835535526275635,-2.987912178039551,3.331692934036255
1764808547.932921,0.7237818918168545,3.645631461793184,-2.0678969914138317,-1.8087868690490723,-0.8249437808990479,-4.083649635314941,,,,,,
1764808547.937518,,,,,,,0.4615962505340576,0.020907163619995117,0.4038453698158264,-1.089215874671936,-2.9676473140716553,3.306201934814453
1764808547.942973,1.2126947050511836,2.957571456220746,-1.7915104920506477,-1.8262076377868652,-0.8834129571914673,-4.114252090454102,,,,,,
1764808547.947548,,,,,,,0.34987872838974,0.0666499137878418,0.39942216873168945,-1.026471734046936,-2.825383186340332,3.341055393218994
1764808547.953025,1.4575047474116085,2.7995208289027214,-1.3596201272428035,-1.860827088356018,-0.8833764791488647,-4.098509788513184,,,,,,
1764808547.957579,,,,,,,0.32874518632888794,0.14323216676712036,0.35415661334991455,-0.8058117032051086,-2.7744436264038086,3.4169445037841797
1764808547.963078,1.2242974645614624,2.682143280495703,-0.8771616047143935,-1.9236845970153809,-0.8315234184265137,-4.0381011962890625,,,,,,
1764808547.967609,,,,,,,0.36516743898391724,0.20433443784713745,0.26509952545166016,-0.44695425033569336,-2.7759604454040527,3.431856632232666
1764808547.97313,0.5793295817404985,2.6590932442978024,-0.511927193596959,-2.040745496749878,-0.7662490606307983,-3.990973472595215,,,,,,
1764808547.977639,,,,,,,0.3968397378921509,0.26236987113952637,0.2072676420211792,-0.12487511336803436,-2.731024980545044,3.4354727268218994
1764808547.983181,0.06978899101912975,2.9923285890862346,-0.6233218682020902,-2.1665170192718506,-0.6684215068817139,-3.9999754428863525,,,,,,
1764808547.987669,,,,,,,0.43767327070236206,0.3172702193260193,0.19618821144104004,0.1369839310646057,-2.7507193088531494,3.4407153129577637
1764808547.993233,0.10278057551681995,3.4078026566222306,-0.9104443541783839,-2.263443946838379,-0.5659358501434326,-4.032468795776367,,,,,,
1764808547.997699,,,,,,,0.4774584174156189,0.31700170040130615,0.20395100116729736,0.24537473917007446,-2.8093504905700684,3.4933669567108154
1764808548.003285,0.5645242267966271,3.486238772216439,-1.4581500595778225,-2.3358306884765625,-0.5075542330741882,-4.05476713180542,,,,,,
1764808548.007729,,,,,,,0.48030751943588257,0.23737847805023193,0.20579612255096436,0.047671250998973846,-2.914100408554077,3.5239365100860596
1764808548.013338,1.315289987128973,2.8128625410348174,-2.1024913349330423,-2.3583571910858154,-0.5320534706115723,-4.086424827575684,,,,,,
1764808548.017759,,,,,,,0.41061410307884216,0.0751991868019104,0.27991652488708496,-0.3307729661464691,-3.0276546478271484,3.550431251525879
1764808548.02339,2.117996362578869,2.1732889184728266,-2.119885537326336,-2.3372080326080322,-0.634710967540741,-4.125800132751465,,,,,,
1764808548.027789,,,,,,,0.3007209300994873,-0.054315388202667236,0.3544178009033203,-0.7416154146194458,-2.9653472900390625,3.5725364685058594
1764808548.033442,2.655611539661884,2.3262967293180523,-1.58375840684399,-2.3173131942749023,-0.7902055382728577,-4.141694068908691,,,,,,
1764808548.037819,,,,,,,0.2658834457397461,-0.038607656955718994,0.400166392326355,-0.9812471270561218,-2.9101414680480957,3.574706554412842
1764808548.043494,2.5788515405863524,2.9594664761871097,-0.9339576970390975,-2.30690598487854,-0.9534417986869812,-4.090726375579834,,,,,,
1764808548.047849,,,,,,,0.3386029005050659,0.06102210283279419,0.3673499822616577,-0.9634175300598145,-2.932373285293579,3.589348316192627
1764808548.053547,1.6705647297680377,3.259616712975502,-0.41427915866300463,-2.3330435752868652,-1.1103224754333496,-4.046475410461426,,,,,,
1764808548.05788,,,,,,,0.43286463618278503,0.16587847471237183,0.2774217128753662,-0.8365309834480286,-2.958667039871216,3.6068572998046875
1764808548.063599,0.634799540027976,3.0720702343210577,-0.5233768083721398,-2.3871195316314697,-1.1707638502120972,-4.064278602600098,,,,,,
1764808548.06791,,,,,,,0.47944551706314087,0.23746830224990845,0.2548304796218872,-0.619823157787323,-3.077559232711792,3.670747756958008
1764808548.073651,0.032141689670085904,2.7340274892508982,-0.7255161682635546,-2.457537889480591,-1.0817655324935913,-4.141976356506348,,,,,,
1764808548.07794,,,,,,,0.4778696894645691,0.2666470408439636,0.22670495510101318,-0.2419234812259674,-3.125552177429199,3.7623307704925537
1764808548.083703,-0.13682254585027695,2.5814339582949875,-0.6444219393759966,-2.573636293411255,-0.9115351438522339,-4.2196736335754395,,,,,,
1764808548.08797,,,,,,,0.46255993843078613,0.27483469247817993,0.17301809787750244,0.15230771899223328,-3.11680006980896,3.8301608562469482
1764808548.093755,-0.09806523743271828,2.4486786618836223,-0.5319441457092762,-2.744729518890381,-0.7265298962593079,-4.269330978393555,,,,,,
1764808548.098,,,,,,,0.4435904324054718,0.2649209499359131,0.14609216153621674,0.5197882652282715,-3.1009082794189453,3.8995039463043213
1764808548.103807,-0.016572949138283728,2.3792227022111416,-0.5888187100976705,-2.923856258392334,-0.574887752532959,-4.300497531890869,,,,,,
1764808548.10803,,,,,,,0.43833640217781067,0.25019240379333496,0.13033175468444824,0.7808640599250793,-3.020185708999634,3.996073007583618
1764808548.113859,0.14185995549559594,2.743380424007773,-0.7833572395965457,-3.0695011615753174,-0.4655902683734894,-4.353715419769287,,,,,,
1764808548.11806,,,,,,,0.4584621489048004,0.25808656215667725,0.18979167938232422,0.7440261244773865,-2.903475522994995,4.076766490936279
1764808548.123911,0.5028238496869802,3.493896593493223,-0.950292161246389,-3.1581928730010986,-0.3715556859970093,-4.427346229553223,,,,,,
1764808548.12809,,,,,,,0.49624449014663696,0.23568516969680786,0.29121288657188416,0.5604283213615417,-2.8571863174438477,4.196992874145508
1764808548.133963,1.0196727175951004,4.204083090677857,-1.0233820935070514,-3.1795566082000732,-0.3378547430038452,-4.4657111167907715,,,,,,
1764808548.13812,,,,,,,0.5330928564071655,0.12674671411514282,0.32203420996665955,0.3484247326850891,-2.8370728492736816,4.273839473724365
1764808548.144015,1.4038520676791668,4.808957448041439,-1.133174009090662,-3.137622833251953,-0.4007919132709503,-4.4845194816589355,,,,,,
1764808548.148151,,,,,,,0.5513157844543457,0.08871579170227051,0.3735957443714142,-0.13474084436893463,-2.777703285217285,4.2712602615356445
1764808548.154067,1.7640695274174212,5.268005868887901,-1.2785896112412214,-3.0416455268859863,-0.5367875695228577,-4.51906156539917,,,,,,
1764808548.158181,,,,,,,0.5740166902542114,0.14946842193603516,0.44833967089653015,-0.7060075998306274,-2.713654041290283,4.3194122314453125
1764808548.16412,2.2449439956247805,5.469176676008105,-1.4411708677262067,-2.8999440670013428,-0.7156083583831787,-4.530086040496826,,,,,,
1764808548.168211,,,,,,,0.6038026809692383,0.16461777687072754,0.45650920271873474,-1.0453550815582275,-2.730457305908203,4.368093490600586
1764808548.174172,2.637404267320037,5.441181000101566,-1.3363561560332775,-2.7736423015594482,-0.9213290214538574,-4.488869667053223,,,,,,
1764808548.178241,,,,,,,0.6223857998847961,0.15994995832443237,0.4589889347553253,-1.2666903734207153,-2.7719526290893555,4.363003730773926
1764808548.184224,2.6251462587714194,5.133364758729934,-1.1246622013330458,-2.734386920928955,-1.124021053314209,-4.428638458251953,,,,,,
1764808548.188271,,,,,,,0.6244968175888062,0.23395836353302002,0.4447442591190338,-1.2830944061279297,-2.771169662475586,4.389632225036621
1764808548.194276,2.2137854717731473,4.5993204258710145,-1.1585796685039997,-2.7654452323913574,-1.2450979948043823,-4.388327598571777,,,,,,
1764808548.198301,,,,,,,0.6292624473571777,0.3319352865219116,0.39233502745628357,-1.0259439945220947,-2.7487587928771973,4.460508346557617
1764808548.204328,1.6795429859936237,4.050798654848337,-1.222107699432224,-2.830664873123169,-1.2759507894515991,-4.3742194175720215,,,,,,
1764808548.208331,,,,,,,0.6207858324050903,0.383980393409729,0.35733330249786377,-0.6398709416389465,-2.715665817260742,4.535538673400879
1764808548.21438,1.1466940003991126,3.7225621412605046,-1.214345540998131,-2.911752462387085,-1.2488923072814941,-4.376573085784912,,,,,,
1764808548.218361,,,,,,,0.599015474319458,0.40165770053863525,0.36297857761383057,-0.27103549242019653,-2.655073881149292,4.5963897705078125
1764808548.224432,0.7124076803654432,3.869425019609928,-1.3555080157488584,-2.9985392093658447,-1.181474208831787,-4.3946404457092285,,,,,,
1764808548.228391,,,,,,,0.589558482170105,0.44058114290237427,0.39216238260269165,-0.04427532106637955,-2.5520427227020264,4.611242294311523
1764808548.234484,0.5594920778483152,4.572361107274889,-1.645099449121952,-3.057684898376465,-1.0919325351715088,-4.405745506286621,,,,,,
1764808548.238422,,,,,,,0.6040611863136292,0.5011817216873169,0.4343292713165283,0.044337138533592224,-2.4379689693450928,4.625264644622803
1764808548.244536,0.7566220851451158,5.498050303792954,-1.9061101001769303,-3.0768237113952637,-1.0055791139602661,-4.365973949432373,,,,,,
1764808548.248452,,,,,,,0.6371092200279236,0.49802708625793457,0.43646419048309326,0.11618682742118835,-2.3767197132110596,4.626065254211426
1764808548.254588,1.08052846057415,6.142683255571127,-2.0920009205788372,-3.0791521072387695,-0.9567275047302246,-4.269167900085449,,,,,,
1764808548.258482,,,,,,,0.6649688482284546,0.45384830236434937,0.4559487998485565,0.06905978173017502,-2.326056718826294,4.619592666625977
1764808548.26464,1.2754051359862089,6.194558988758922,-2.4878666168034074,-3.0616931915283203,-0.9462069869041443,-4.1647748947143555,,,,,,
1764808548.268512,,,,,,,0.6741349101066589,0.4242757558822632,0.49833977222442627,-0.03745334967970848,-2.2871952056884766,4.606053352355957
1764808548.274693,1.4006974030405281,5.7550289228528735,-2.768576824584603,-3.0054712295532227,-0.9558199048042297,-4.0952677726745605,,,,,,
1764808548.278542,,,,,,,0.648780345916748,0.3829174041748047,0.5379999876022339,-0.22094197571277618,-2.229492664337158,4.589507102966309
1764808548.284745,1.5079197603970764,5.264570633742213,-2.714182386574149,-2.9439237117767334,-1.0107606649398804,-4.078214168548584,,,,,,
1764808548.288572,,,,,,,0.606918454170227,0.33730119466781616,0.5695000886917114,-0.38026294112205505,-2.1398847103118896,4.613271236419678
1764808548.294797,1.6232745708048342,4.805248072129488,-2.675468917298317,-2.883028030395508,-1.1131829023361206,-4.092368125915527,,,,,,
1764808548.298602,,,,,,,0.5654957294464111,0.3210781216621399,0.5708192586898804,-0.5255971550941467,-2.0625507831573486,4.644333839416504
1764808548.304849,1.688290648333728,4.451445740130543,-2.663361130875349,-2.828437566757202,-1.2543270587921143,-4.125870704650879,,,,,,
1764808548.308632,,,,,,,0.5358405113220215,0.3199220299720764,0.563817024230957,-0.7449140548706055,-1.9850447177886963,4.643701076507568
1764808548.314901,1.727465597641468,4.199785685744882,-2.5436814430058,-2.7776057720184326,-1.432551622390747,-4.161123275756836,,,,,,
1764808548.318662,,,,,,,0.5223796963691711,0.27809685468673706,0.5723496675491333,-0.9805256724357605,-1.8937212228775024,4.65244722366333
1764808548.324953,1.7341800005882977,4.1163790882617235,-2.483611297446489,-2.7202401161193848,-1.6397916078567505,-4.1779303550720215,,,,,,
1764808548.328693,,,,,,,0.5204271078109741,0.2372182011604309,0.5838854312896729,-1.213814377784729,-1.8179041147232056,4.624124050140381
1764808548.335005,1.703033751696348,4.2743133957237,-2.4098422968804836,-2.693817377090454,-1.871083378791809,-4.170954704284668,,,,,,
1764808548.338723,,,,,,,0.5373331904411316,0.28477948904037476,0.5704602003097534,-1.4345803260803223,-1.72872793674469,4.622269630432129
1764808548.345057,1.525550401894748,4.278514354544877,-2.5365374164700505,-2.667137622833252,-2.112643003463745,-4.1313252449035645,,,,,,
1764808548.348753,,,,,,,0.5688802599906921,0.343410462141037,0.5554046630859375,-1.5074814558029175,-1.7577513456344604,4.592400074005127
1764808548.355109,1.3587749085903167,3.905263225710392,-2.638273451370001,-2.676769733428955,-2.3206605911254883,-4.071970462799072,,,,,,
1764808548.358783,,,,,,,0.5641307234764099,0.35724756121635437,0.5299113988876343,-1.4990493059158325,-1.7255734205245972,4.564567565917969
1764808548.365161,1.1637100171297787,3.49710971032083,-2.663763281935453,-2.7466461658477783,-2.49302339553833,-4.021552562713623,,,,,,
1764808548.368813,,,,,,,0.5353733897209167,0.38092517852783203,0.533098578453064,-1.4284814596176147,-1.6746327877044678,4.580941677093506
1764808548.375213,0.9256164235427975,2.941825021034479,-2.947517095196247,-2.8234899044036865,-2.6024117469787598,-4.004535675048828,,,,,,
1764808548.378843,,,,,,,0.5094792246818542,0.37374192476272583,0.545302152633667,-1.28522789478302,-1.675656795501709,4.628805160522461
1764808548.385265,0.7404431037604808,2.3150047893226144,-3.152335903429985,-2.84806227684021,-2.6219873428344727,-4.024712085723877,,,,,,
1764808548.388873,,,,,,,0.4561929702758789,0.31553518772125244,0.5624803304672241,-1.2074260711669922,-1.6449660062789917,4.64652681350708
1764808548.395318,0.582342499820888,1.904547673165798,-3.0072037943959233,-2.8457906246185303,-2.5689826011657715,-4.078166484832764,,,,,,
1764808548.398903,,,,,,,0.3956219553947449,0.295535683631897,0.5705709457397461,-1.2865166664123535,-1.5107316970825195,4.710122585296631
1764808548.40537,0.4216221418369561,1.706836651110649,-2.676165667390823,-2.8696296215057373,-2.4976768493652344,-4.145695686340332,,,,,,
1764808548.408933,,,,,,,0.3696649670600891,0.2793346643447876,0.5366567373275757,-1.358274221420288,-1.3785512447357178,4.813509941101074
1764808548.415422,0.2577063488125801,1.652647380283475,-2.541027713626623,-2.930844306945801,-2.462653160095215,-4.225127220153809,,,,,,
1764808548.418963,,,,,,,0.3754268288612366,0.24560482800006866,0.5269386172294617,-1.5385892391204834,-1.2012979984283447,4.876174449920654
1764808548.425474,0.11782949342560023,2.196628585267067,-2.6093337726116177,-3.0036985874176025,-2.3974130153656006,-4.321156978607178,,,,,,
1764808548.428994,,,,,,,0.4241071343421936,0.3195286989212036,0.5636609792709351,-1.691042423248291,-0.9920163154602051,4.972929000854492
1764808548.435526,0.20136998295411465,3.211862443631887,-2.765520359623432,-3.025167942047119,-2.278371572494507,-4.390885829925537,,,,,,
1764808548.439024,,,,,,,0.5246952176094055,0.3798171579837799,0.5542575716972351,-1.742687463760376,-0.9745555520057678,5.009681224822998
1764808548.445578,0.40115993017517027,3.866974119326472,-2.9684713281586763,-2.964460611343384,-2.1081836223602295,-4.4156341552734375,,,,,,
1764808548.449054,,,,,,,0.5737004280090332,0.43366920948028564,0.5466892123222351,-1.7432233095169067,-0.9543139338493347,4.995711803436279
1764808548.45563,0.5374336099710315,4.211293752709031,-3.0708585204437373,-2.8230514526367188,-1.90945303440094,-4.386661529541016,,,,,,
1764808548.459084,,,,,,,0.5550159215927124,0.47712305188179016,0.5764885544776917,-1.6132326126098633,-0.8037422895431519,4.974708080291748
1764808548.465682,0.6281710617989301,4.4397704999059435,-2.9451918671190738,-2.645845413208008,-1.6627267599105835,-4.309117317199707,,,,,,
1764808548.469114,,,,,,,0.5096655488014221,0.574699342250824,0.5859020352363586,-1.4146699905395508,-0.5710214376449585,4.896874904632568
1764808548.475734,0.5545369396589697,4.7366351391524075,-2.625665898731351,-2.4442152976989746,-1.4079415798187256,-4.197876930236816,,,,,,
1764808548.479144,,,,,,,0.49364715814590454,0.7114060521125793,0.5147634744644165,-1.153503179550171,-0.3875354826450348,4.808227062225342
1764808548.485786,0.6301661811389029,4.602438850152493,-2.2376111685186624,-2.2253289222717285,-1.1905674934387207,-4.051819324493408,,,,,,
1764808548.489174,,,,,,,0.5007184743881226,0.7421528100967407,0.4072679281234741,-0.828460693359375,-0.3164903223514557,4.641296863555908
1764808548.495838,0.8372381751269101,4.092749790871143,-1.6477335970178246,-2.0516581535339355,-1.07421875,-3.880383014678955,,,,,,
1764808548.499204,,,,,,,0.46908342838287354,0.7344972491264343,0.30058979988098145,-0.5864357352256775,-0.11712956428527832,4.409365653991699
1764808548.50589,0.990850673867017,3.7322523451477285,-1.2656740155667066,-1.9530190229415894,-1.0060532093048096,-3.721642017364502,,,,,,
1764808548.509234,,,,,,,0.439195454120636,0.7813369035720825,0.22019696235656738,-0.3129695951938629,0.05420224368572235,4.206521987915039
1764808548.515943,1.2570609393917023,3.5615579248338936,-1.2711667677640914,-1.8645155429840088,-0.8946930766105652,-3.5598034858703613,,,,,,
1764808548.519264,,,,,,,0.4193485379219055,0.7947453260421753,0.16209077835083008,-0.1264897882938385,0.12501117587089539,3.9680631160736084
1764808548.525995,1.4895760021939872,3.3979268670350313,-1.5042054160490632,-1.7456549406051636,-0.6831093430519104,-3.374290704727173,,,,,,
1764808548.529295,,,,,,,0.3707462549209595,0.7605364322662354,0.12178856134414673,0.08503071963787079,0.22358009219169617,3.739976167678833
1764808548.536047,1.7455492436036466,3.1478070278286934,-1.9288941789150238,-1.5761524438858032,-0.32681724429130554,-3.1483561992645264,,,,,,
1764808548.539325,,,,,,,0.28832828998565674,0.7422477006912231,0.08759098500013351,0.3208181858062744,0.38512319326400757,3.543726682662964
1764808548.546099,1.815673165665567,2.829555317160487,-2.1191133839100598,-1.3955705165863037,0.12762001156806946,-2.9036269187927246,,,,,,
1764808548.549355,,,,,,,0.21209174394607544,0.7864553928375244,0.024003036320209503,0.686434268951416,0.5342943072319031,3.3655471801757812
1764808548.556151,1.938184862090647,2.542042443627119,-1.8918296458899975,-1.2418807744979858,0.5934444665908813,-2.660076379776001,,,,,,
1764808548.559385,,,,,,,0.15871530771255493,0.7917792797088623,-0.024192385375499725,1.011764407157898,0.6970387101173401,3.1643991470336914
1764808548.566203,2.2554922776460646,2.2793980538904663,-1.416315243411064,-1.1308709383010864,0.963331937789917,-2.448216199874878,,,,,,
1764808548.569415,,,,,,,0.13688355684280396,0.7738215327262878,-0.09990888833999634,1.252649188041687,0.7805160284042358,2.959429979324341
1764808548.576255,3.0692960934326052,1.9743477701008318,-0.9713006086140871,-1.0528568029403687,1.1530094146728516,-2.254049777984619,,,,,,
1764808548.579445,,,,,,,0.13648247718811035,0.7684015035629272,-0.17114973068237305,1.3938747644424438,0.7976750731468201,2.7370617389678955
1764808548.586307,2.9377824676454067,1.5161071585059165,-0.9137538440525531,-0.9728674292564392,1.1436536312103271,-2.163299560546875,,,,,,
1764808548.589475,,,,,,,0.12850356101989746,0.7306571006774902,-0.182256817817688,1.759752631187439,0.847823441028595,2.5931789875030518
1764808548.596359,3.4057460163533686,1.653566248694062,-1.2674293348014354,-0.8517698049545288,1.1282211542129517,-2.107391595840454,,,,,,
1764808548.599505,,,,,,,0.1067696213722229,0.6584051847457886,-0.1767336130142212,1.90370774269104,0.8112859129905701,2.470930576324463
1764808548.606411,3.9742511294797063,1.706775276312232,-1.2127175014048814,-0.7240367531776428,1.0998058319091797,-2.002485513687134,,,,,,
1764808548.609535,,,,,,,0.08651137351989746,0.5820678472518921,-0.18375813961029053,1.8477797508239746,0.8131642937660217,2.326606512069702
1764808548.616463,4.182121434238553,1.2329729384481907,-0.7229261517703532,-0.640853226184845,1.0322811603546143,-1.8721039295196533,,,,,,
1764808548.619566,,,,,,,0.06644254922866821,0.5083271265029907,-0.2031780481338501,1.6132984161376953,0.7759761810302734,2.196685314178467
1764808548.626516,4.403154879692196,0.5453817194312811,-0.3141816847503185,-0.6348485350608826,0.9170584678649902,-1.723453164100647,,,,,,
1764808548.629596,,,,,,,0.057430148124694824,0.3551986813545227,-0.22365176677703857,1.2752516269683838,0.6781108379364014,2.050468921661377
1764808548.636568,4.313489221814274,0.028057050704956052,-0.2685129895091057,-0.6563383936882019,0.7863897085189819,-1.5856399536132812,,,,,,
1764808548.639626,,,,,,,0.06971806287765503,0.3704354763031006,-0.23530125617980957,0.9426878094673157,0.5510681867599487,1.894652009010315
1764808548.64662,4.108065433424711,-0.2654121008843183,-0.38705928943455215,-0.6591268181800842,0.6854337453842163,-1.479880928993225,,,,,,
1764808548.649656,,,,,,,0.03615880012512207,0.36589157581329346,-0.2544935941696167,0.6739705801010132,0.4457412660121918,1.7187094688415527
1764808548.656672,3.966492478176951,-0.37051089021563527,-0.688707655826211,-0.6485530138015747,0.677995502948761,-1.408170461654663,,,,,,
1764808548.659686,,,,,,,-0.02167445421218872,0.4351698160171509,-0.2820117473602295,0.5350258946418762,0.41911551356315613,1.5919629335403442
1764808548.666724,4.055282522264123,-0.201377727869153,-1.056540851265192,-0.6527542471885681,0.7813205122947693,-1.3113176822662354,,,,,,
1764808548.669716,,,,,,,-0.05523473024368286,0.514617919921875,-0.30145978927612305,0.5762133002281189,0.43250933289527893,1.5274620056152344
1764808548.676776,4.13790702945888,0.2729191155135631,-1.3382248725146055,-0.6732454299926758,0.9212576150894165,-1.160353660583496,,,,,,
1764808548.679746,,,,,,,-0.039456069469451904,0.5562487244606018,-0.3007376194000244,0.5175063014030457,0.4162358343601227,1.4193973541259766
1764808548.686828,4.0509453698426485,0.9973860669851302,-1.3649386919170616,-0.6828495264053345,1.0410022735595703,-0.9789759516716003,,,,,,
1764808548.689776,,,,,,,0.023520171642303467,0.5528571009635925,-0.25776779651641846,0.38258761167526245,0.3508014380931854,1.2593258619308472
1764808548.69688,3.9577176355689763,1.5445909101903437,-1.117621635171771,-0.6401252150535583,1.0862702131271362,-0.8194851279258728,,,,,,
1764808548.699806,,,,,,,0.08192932605743408,0.4951648712158203,-0.21760785579681396,0.1730469912290573,0.21262943744659424,1.0684199333190918
1764808548.706932,4.142808245503902,1.5794278302937745,-0.8109393662661314,-0.5575841069221497,1.021297574043274,-0.7145636677742004,,,,,,
1764808548.709836,,,,,,,0.0917351245880127,0.5111886858940125,-0.1965467929840088,0.03308429569005966,0.07896804064512253,0.8912003636360168
1764808548.716984,4.593154304456711,1.0365040254086255,-0.6257943957954645,-0.4570162296295166,0.7951807975769043,-0.6502051949501038,,,,,,
1764808548.719867,,,,,,,0.04686242341995239,0.546544075012207,-0.18982768058776855,-0.0727946013212204,-0.0020879285875707865,0.720437228679657
1764808548.727036,5.117044907569885,0.47745209254324433,-0.7802408611416817,-0.37827906012535095,0.5170975923538208,-0.5909010171890259,,,,,,
1764808548.729897,,,,,,,-0.021590471267700195,0.567727267742157,-0.18919897079467773,-0.10276608169078827,0.0007491371361538768,0.5839012265205383
1764808548.737088,5.589070298889279,0.35605274127423764,-1.129117427176237,-0.3033342659473419,0.29429492354393005,-0.47984689474105835,,,,,,
1764808548.739927,,,,,,,-0.05690145492553711,0.5613497495651245,-0.20134317874908447,-0.07830662280321121,0.006580128334462643,0.4831545054912567
1764808548.747141,5.680261558899283,0.4001438119351864,-1.2885019334465264,-0.23041631281375885,0.11689256131649017,-0.30786120891571045,,,,,,
1764808548.749957,,,,,,,-0.055463314056396484,0.5585702061653137,-0.22061502933502197,-0.07440535724163055,-0.03867470100522041,0.3791269063949585
1764808548.757193,5.285663690653443,0.34324703571498394,-1.2946411668539046,-0.16370226442813873,-0.03993833065032959,-0.10812467336654663,,,,,,
1764808548.759987,,,,,,,-0.031996071338653564,0.5509241223335266,-0.22869503498077393,-0.1408228874206543,-0.12585486471652985,0.23626674711704254
1764808548.767245,4.712663311934471,0.244653390493989,-1.2653513594835997,-0.11224085837602615,-0.14443224668502808,0.061085641384124756,,,,,,
1764808548.770017,,,,,,,-0.03054744005203247,0.5488103628158569,-0.2186577320098877,-0.24166880548000336,-0.19878393411636353,0.06150452792644501
