timestamp,phone_accel_x,phone_accel_y,phone_accel_z,phone_gyro_x,phone_gyro_y,phone_gyro_z,watch_accel_x,watch_accel_y,watch_accel_z,watch_gyro_x,watch_gyro_y,watch_gyro_z
1764808614.349408,-3.284025762566924,4.2612376410514115,2.7192171658709645,1.8238294124603271,0.524564802646637,1.9283018112182617,,,,,,
1764808614.356759,,,,,,,0.6619173884391785,-0.35956093668937683,0.1386449933052063,1.0470856428146362,0.17869330942630768,-2.570668935775757
1764808614.35946,-3.0737671013668177,4.022117919287085,2.541998019963503,1.8005566596984863,0.5785971879959106,1.787872314453125,,,,,,
1764808614.366789,,,,,,,0.5958069562911987,-0.40302062034606934,0.16466456651687622,0.9587382078170776,0.19546669721603394,-2.43743896484375
1764808614.369513,-2.885738392153382,3.5341578767329453,2.338527119207382,1.7798993587493896,0.5778840184211731,1.671593427658081,,,,,,
1764808614.376819,,,,,,,0.4995650053024292,-0.42866387963294983,0.17701178789138794,0.8576834797859192,0.378855437040329,-2.2950611114501953
1764808614.379565,-2.682656782975793,3.140681705993414,2.4689479813218114,1.7118812799453735,0.5595288872718811,1.5501610040664673,,,,,,
1764808614.386849,,,,,,,0.4541062116622925,-0.42742258310317993,0.14288301765918732,0.8465248346328735,0.5926347970962524,-2.108645439147949
1764808614.389617,-2.4213515328884125,3.2464597097605465,2.8028350680172442,1.624646782875061,0.5694363713264465,1.4278428554534912,,,,,,
1764808614.396879,,,,,,,0.5089887976646423,-0.40688252449035645,0.07483673095703125,0.8707383871078491,0.5738810896873474,-1.9854164123535156
1764808614.399669,-2.1408710422098634,3.5594746888190505,2.940793924421072,1.58277428150177,0.593787670135498,1.3409650325775146,,,,,,
1764808614.406909,,,,,,,0.5859937071800232,-0.38831228017807007,0.03199566900730133,0.9173312187194824,0.4173673987388611,-1.9330576658248901
1764808614.409722,-2.0134294881671666,3.564945813706517,3.080941230779886,1.5714411735534668,0.5790449380874634,1.314708948135376,,,,,,
1764808614.416939,,,,,,,0.5763528943061829,-0.3854562044143677,0.023391008377075195,0.9530513882637024,0.33922627568244934,-1.8530025482177734
1764808614.419774,-2.2291946378290652,3.102812286326289,3.2015222514033317,1.5440340042114258,0.5395824313163757,1.3067607879638672,,,,,,
1764808614.426969,,,,,,,0.4834858179092407,-0.39677929878234863,0.029663488268852234,0.9430160522460938,0.355136513710022,-1.7526799440383911
1764808614.429826,-2.692413914619386,2.464920625501871,3.1222447165489196,1.5011944770812988,0.518266499042511,1.2756593227386475,,,,,,
1764808614.436999,,,,,,,0.3834213614463806,-0.4058883488178253,0.05608689785003662,0.8973661661148071,0.39108574390411377,-1.6695241928100586
1764808614.439879,-3.098054570405185,1.8802742326527833,2.8031296670496464,1.4726581573486328,0.5609550476074219,1.1979008913040161,,,,,,
1764808614.447029,,,,,,,0.3064839243888855,-0.4075585603713989,0.08738632500171661,0.8246980905532837,0.3986373841762543,-1.5962313413619995
1764808614.449931,-3.3219591873809695,1.343876614665985,2.2822575349748133,1.4644027948379517,0.6736328601837158,1.0859826803207397,,,,,,
1764808614.457059,,,,,,,0.24539285898208618,-0.41288691759109497,0.11800415813922882,0.7401943802833557,0.41752320528030396,-1.5265926122665405
1764808614.459983,-3.377072295054793,0.8170961353302002,1.9230162267923354,1.4372076988220215,0.8054805397987366,0.9605014324188232,,,,,,
1764808614.46709,,,,,,,0.18744605779647827,-0.4169754385948181,0.12665677070617676,0.6310257911682129,0.5112744569778442,-1.4506016969680786
1764808614.470036,-3.224430833303928,0.4341916274875402,1.8582219753205775,1.3606899976730347,0.8869210481643677,0.8395446538925171,,,,,,
1764808614.47712,,,,,,,0.15304559469223022,-0.40855562686920166,0.11660784482955933,0.5534864068031311,0.6480677127838135,-1.3525923490524292
1764808614.480088,-2.9075919120430944,0.3743254800677299,1.9435013809382915,1.2387301921844482,0.900155782699585,0.7407872676849365,,,,,,
1764808614.48715,,,,,,,0.1718873381614685,-0.3922263979911804,0.07941704988479614,0.48957404494285583,0.7322790026664734,-1.2367026805877686
1764808614.49014,-2.506974637377262,0.6823521493196487,1.8992413834512232,1.115607738494873,0.8908607959747314,0.6582441329956055,,,,,,
1764808614.49718,,,,,,,0.23851072788238525,-0.36600393056869507,0.05121330916881561,0.43138402700424194,0.6598982810974121,-1.1605021953582764
1764808614.500193,-2.069869168269634,1.146038751360774,1.61925422924757,1.032711148262024,0.8705779910087585,0.6067346334457397,,,,,,
1764808614.50721,,,,,,,0.2964578866958618,-0.34028130769729614,0.05086807906627655,0.4078477919101715,0.5303568243980408,-1.092064380645752
1764808614.510245,-1.7646230696469545,1.4435212302446365,1.355232705938816,0.9849308133125305,0.8190482258796692,0.5793307423591614,,,,,,
1764808614.51724,,,,,,,0.29861366748809814,-0.325897753238678,0.061650097370147705,0.378292977809906,0.4463045001029968,-0.9979965090751648
1764808614.520296,-1.6262474491357803,1.4337205517202616,1.1338437981110066,0.9605489373207092,0.7493356466293335,0.5518642067909241,,,,,,
1764808614.52727,,,,,,,0.25171148777008057,-0.3280832767486572,0.07525555789470673,0.30893415212631226,0.4068218171596527,-0.9016116261482239
1764808614.53035,-1.5752479142606257,1.2093196756601332,0.9889666136860847,0.9408074021339417,0.667784571647644,0.5018396377563477,,,,,,
1764808614.5373,,,,,,,0.194707989692688,-0.3376922607421875,0.09273403882980347,0.1831778585910797,0.39192676544189453,-0.8160690069198608
1764808614.540402,-1.5537006838411092,0.8358890986055135,0.8775555724680423,0.9101270437240601,0.5818936824798584,0.43356215953826904,,,,,,
1764808614.54733,,,,,,,0.14783883094787598,-0.33047449588775635,0.11515867710113525,0.046894051134586334,0.4160081148147583,-0.7399129867553711
1764808614.550454,-1.5395283661037682,0.47214930996000765,0.7941665106415748,0.8662048578262329,0.4991130828857422,0.36280009150505066,,,,,,
1764808614.55736,,,,,,,0.11043012142181396,-0.3047942519187927,0.116263747215271,-0.021768683567643166,0.5179861783981323,-0.6692817807197571
1764808614.560507,-1.489502060174942,0.38066754257082935,0.9609060558497905,0.7949129343032837,0.38950416445732117,0.3059128522872925,,,,,,
1764808614.56739,,,,,,,0.10771238803863525,-0.2576630711555481,0.08137507736682892,-0.023735692724585533,0.6491987705230713,-0.5874524116516113
1764808614.570559,-1.408877786886692,0.7269108374923468,1.272913319170475,0.7235386371612549,0.27620717883110046,0.26031580567359924,,,,,,
1764808614.577421,,,,,,,0.16459083557128906,-0.21990126371383667,0.037765175104141235,-0.004513243213295937,0.6010709404945374,-0.5243819355964661
1764808614.580611,-1.4222949023425577,1.19446171374619,1.2025976739287376,0.6933233141899109,0.21317128837108612,0.23083022236824036,,,,,,
1764808614.587451,,,,,,,0.2391197681427002,-0.22670894861221313,0.019654929637908936,-0.022356688976287842,0.41866064071655273,-0.5149836540222168
1764808614.590664,-1.5365736079514025,1.3439315597236157,1.0406208130776882,0.6754695177078247,0.18439370393753052,0.2239139825105667,,,,,,
1764808614.597481,,,,,,,0.2547150254249573,-0.2510533928871155,0.023083820939064026,-0.06674011051654816,0.3143472671508789,-0.49404218792915344
1764808614.600716,-1.7781892381846904,1.1654267579197883,0.9726467625260352,0.6302083730697632,0.1802583485841751,0.21497538685798645,,,,,,
1764808614.607511,,,,,,,0.21335703134536743,-0.2672438621520996,0.04061257839202881,-0.1255837231874466,0.29426199197769165,-0.43534132838249207
1764808614.610768,-2.0108277812361717,0.8379501227885484,0.9180255300223826,0.5747197866439819,0.20102302730083466,0.1735461950302124,,,,,,
1764808614.617541,,,,,,,0.15849417448043823,-0.2738635540008545,0.06802816689014435,-0.22181041538715363,0.3016895353794098,-0.4044809937477112
1764808614.620821,-2.114743498262763,0.5929629702955485,0.8567460086733102,0.5350877046585083,0.24056948721408844,0.10022346675395966,,,,,,
1764808614.627571,,,,,,,0.11760354042053223,-0.2604701519012451,0.08879794180393219,-0.31539496779441833,0.3296833634376526,-0.3738461136817932
1764808614.630873,-2.0344488953202964,0.4722112692803144,0.8119839068830013,0.5146557092666626,0.2854781150817871,0.020499881356954575,,,,,,
1764808614.637601,,,,,,,0.09333860874176025,-0.2432311773300171,0.09187145531177521,-0.37144502997398376,0.35857999324798584,-0.31560468673706055
1764808614.640925,-1.9198621466755865,0.44350656832158564,0.7367337278485298,0.5046934485435486,0.32030507922172546,-0.04643569141626358,,,,,,
1764808614.647631,,,,,,,0.08126354217529297,-0.2285526990890503,0.07852531969547272,-0.41120657324790955,0.3813348412513733,-0.259756863117218
1764808614.650977,-1.7847388059586287,0.42475744418799877,0.6458563560932874,0.4925025999546051,0.3361370265483856,-0.09209398925304413,,,,,,
1764808614.657661,,,,,,,0.07485872507095337,-0.21332037448883057,0.06858623027801514,-0.4220564663410187,0.40342095494270325,-0.20686380565166473
1764808614.66103,-1.6158604951560496,0.3533703703224659,0.5504980395317077,0.4795602560043335,0.33747634291648865,-0.12781016528606415,,,,,,
1764808614.667691,,,,,,,0.06938385963439941,-0.2008211612701416,0.05936587601900101,-0.3851144313812256,0.4336342513561249,-0.1535758227109909
1764808614.671082,-1.3859183515816926,0.2819651762783527,0.5390174450963735,0.450458288192749,0.3282942771911621,-0.1640017181634903,,,,,,
1764808614.677722,,,,,,,0.06674468517303467,-0.1738678216934204,0.0395471453666687,-0.2990702688694,0.4768587052822113,-0.08712196350097656
1764808614.681134,-1.1163988153785467,0.3351443932801485,0.6203033971637487,0.4117461144924164,0.3085014522075653,-0.19836577773094177,,,,,,
1764808614.687752,,,,,,,0.08177393674850464,-0.14841699600219727,0.01751810312271118,-0.18212632834911346,0.4720013439655304,-0.024296661838889122
1764808614.691187,-0.9059376173436641,0.40499475909769533,0.5615004950612783,0.3841134011745453,0.291903018951416,-0.22858759760856628,,,,,,
1764808614.697782,,,,,,,0.10009729862213135,-0.13929522037506104,0.007049739360809326,-0.06659948825836182,0.42501387000083923,0.016276264563202858
1764808614.701239,-0.7787363017976283,0.4255611617863178,0.45229543945491313,0.3603633940219879,0.2764529287815094,-0.24586254358291626,,,,,,
1764808614.707812,,,,,,,0.10548442602157593,-0.13499480485916138,0.007924959063529968,0.03215638920664787,0.4029562473297119,0.054903287440538406
1764808614.711291,-0.7438765853404998,0.36291853539049623,0.3862590789675712,0.33168888092041016,0.2691534757614136,-0.2568312883377075,,,,,,
1764808614.717842,,,,,,,0.09416455030441284,-0.12390142679214478,0.02130436897277832,0.10891534388065338,0.4028201401233673,0.10583131015300751
1764808614.721344,-0.802142896348238,0.30936113272607324,0.30959548947121945,0.31025177240371704,0.27730944752693176,-0.27621394395828247,,,,,,
1764808614.727872,,,,,,,0.07437866926193237,-0.11249536275863647,0.0350157767534256,0.145388662815094,0.4158022701740265,0.1454160064458847
1764808614.731396,-0.8892617923527956,0.29090076240599155,0.28503742333054544,0.3054301142692566,0.3049094080924988,-0.301577091217041,,,,,,
1764808614.737902,,,,,,,0.0553169846534729,-0.10443955659866333,0.049359217286109924,0.15290169417858124,0.44596177339553833,0.1826002597808838
1764808614.741448,-0.9445534714639187,0.33420097495019435,0.21201370644019915,0.3113889694213867,0.3529406189918518,-0.3280685245990753,,,,,,
1764808614.747932,,,,,,,0.040789902210235596,-0.09874594211578369,0.054006874561309814,0.15724557638168335,0.4817618429660797,0.21993139386177063
1764808614.751501,-0.9934481430143117,0.3631055823951959,0.1509644867156632,0.32190045714378357,0.40966275334358215,-0.3516840934753418,,,,,,
1764808614.757962,,,,,,,0.0318450927734375,-0.08512544631958008,0.05059730261564255,0.19039246439933777,0.5308089852333069,0.2444920539855957
1764808614.761553,-0.9584194997310638,0.35971067925989625,0.1278705931097269,0.3274577856063843,0.4557839632034302,-0.3724958300590515,,,,,,
1764808614.767992,,,,,,,0.03096592426300049,-0.05907541513442993,0.03619784116744995,0.2494906783103943,0.5663329362869263,0.25922203063964844
1764808614.771605,-0.8013871095448732,0.3308113325119018,0.21223872910141944,0.3252207338809967,0.47362685203552246,-0.3834912180900574,,,,,,
1764808614.778022,,,,,,,0.039459228515625,-0.032108843326568604,0.012638501822948456,0.31783005595207214,0.5621823668479919,0.27180010080337524
1764808614.781658,-0.6065104341328144,0.2970978634804487,0.2977379149496555,0.3066912293434143,0.46797311305999756,-0.39069291949272156,,,,,,
1764808614.788053,,,,,,,0.05706685781478882,-0.028922975063323975,-0.0006505846977233887,0.3718341588973999,0.5379800796508789,0.2862943708896637
1764808614.79171,-0.42989422255456444,0.2577840902239084,0.2976362264071591,0.2786577343940735,0.4583151638507843,-0.387633740901947,,,,,,
1764808614.798083,,,,,,,0.06999766826629639,-0.04490154981613159,-0.0009489133954048157,0.4180818498134613,0.5068996548652649,0.2962121069431305
1764808614.801762,-0.2962947304040193,0.2090028159201145,0.18162616696106268,0.25002679228782654,0.4561697840690613,-0.393841415643692,,,,,,
1764808614.808113,,,,,,,0.06407797336578369,-0.0607258677482605,0.005033321678638458,0.4424116909503937,0.48602530360221863,0.2972390055656433
1764808614.811815,-0.20619827989339828,0.17137363474965095,0.09657408555950969,0.22992447018623352,0.45634743571281433,-0.4045688807964325,,,,,,
1764808614.818143,,,,,,,0.04766428470611572,-0.05781066417694092,0.015478432178497314,0.44710299372673035,0.4818233549594879,0.3142361044883728
1764808614.821867,-0.16034019955992698,0.14698212081491946,0.02089548851251602,0.2208438366651535,0.44979819655418396,-0.42368391156196594,,,,,,
1764808614.828173,,,,,,,0.03537982702255249,-0.05845379829406738,0.027073435485363007,0.4239545166492462,0.48582902550697327,0.3436347246170044
1764808614.831918,-0.1454734698176384,0.15577391455769538,-0.010641221001744269,0.21452787518501282,0.4402049779891968,-0.4454733729362488,,,,,,
1764808614.838203,,,,,,,0.02688014507293701,-0.06434166431427002,0.029462754726409912,0.35925766825675964,0.5010281801223755,0.3610795736312866
1764808614.841971,-0.13017711648643016,0.17579495832324027,0.011866963404417038,0.20718078315258026,0.42548778653144836,-0.46777287125587463,,,,,,
1764808614.848233,,,,,,,0.025127410888671875,-0.062721848487854,0.027214176952838898,0.27787014842033386,0.5077268481254578,0.379317969083786
1764808614.852024,-0.08038052766025065,0.17296879498660564,0.07437569775488227,0.19979450106620789,0.40181654691696167,-0.4905884265899658,,,,,,
1764808614.858263,,,,,,,0.028719425201416016,-0.05381566286087036,0.01461220532655716,0.21965071558952332,0.4963969588279724,0.39569762349128723
1764808614.862076,-0.01279576868712902,0.12858370981514453,0.11096735257115214,0.19561946392059326,0.36280789971351624,-0.5030331611633301,,,,,,
1764808614.868293,,,,,,,0.029233872890472412,-0.04379260540008545,0.0005396008491516113,0.1809491217136383,0.4801546335220337,0.39546993374824524
1764808614.872128,0.07911386872529982,0.08607903156280516,0.16427403187751768,0.18843328952789307,0.30659136176109314,-0.5057184100151062,,,,,,
1764808614.878323,,,,,,,0.02648526430130005,-0.030451595783233643,-0.007587544620037079,0.15002311766147614,0.46568459272384644,0.3892457187175751
1764808614.882181,0.18556261136084795,0.006580547434091567,0.1874222677528858,0.17914630472660065,0.2472296506166458,-0.4962249994277954,,,,,,
1764808614.888353,,,,,,,0.023000478744506836,-0.01607877016067505,-0.006233986467123032,0.13251976668834686,0.45459386706352234,0.3905285596847534
1764808614.892233,0.19663491725623605,-0.010489829832315445,0.17163378352317957,0.17471720278263092,0.2049354612827301,-0.4820985198020935,,,,,,
1764808614.898383,,,,,,,0.02166604995727539,-0.014240682125091553,-0.00771748274564743,0.13025447726249695,0.4391997158527374,0.39005133509635925
1764808614.902285,0.14662410115748642,0.013337620478868484,0.08506430156230926,0.17147481441497803,0.19817674160003662,-0.47149863839149475,,,,,,
1764808614.908414,,,,,,,0.019284188747406006,-0.020425736904144287,-0.009082131087779999,0.12245701253414154,0.43340229988098145,0.3774695098400116
1764808614.912338,0.06210457399636507,0.029593758752942085,0.044319034197926516,0.16364698112010956,0.2231460064649582,-0.4690445363521576,,,,,,
1764808614.918444,,,,,,,0.014353811740875244,-0.014630019664764404,-0.00667601078748703,0.1128486767411232,0.43255728483200073,0.37283897399902344
1764808614.92239,-0.018663491676747797,0.033438159221410746,0.02758358797430992,0.15431217849254608,0.27046138048171997,-0.47041967511177063,,,,,,
1764808614.928474,,,,,,,0.012342572212219238,0.006012260913848877,-0.006852567195892334,0.10960601270198822,0.44372522830963135,0.3878075182437897
1764808614.932442,-0.05113426717072725,0.05158347224295139,0.028190285163186488,0.1474207043647766,0.3228321671485901,-0.47436410188674927,,,,,,
1764808614.938504,,,,,,,0.014019370079040527,0.02234673500061035,-0.012767907232046127,0.13867324590682983,0.4528135359287262,0.39935439825057983
1764808614.942495,-0.0402265041872859,0.11455752255022525,0.04328501497507095,0.14985844492912292,0.3780338764190674,-0.4651394784450531,,,,,,
1764808614.948534,,,,,,,0.018646538257598877,0.027373015880584717,-0.02430909126996994,0.18830843269824982,0.4448198080062866,0.39680150151252747
1764808614.952547,0.00601969868093729,0.14268763849139213,0.05498769119586795,0.15394186973571777,0.4314723312854767,-0.44787099957466125,,,,,,
1764808614.958564,,,,,,,0.020111262798309326,0.02444326877593994,-0.0311281681060791,0.22207392752170563,0.42356589436531067,0.3723243772983551
1764808614.962599,0.0735556500762701,0.129595517206192,0.10219254649579525,0.1556069701910019,0.4676029682159424,-0.42511236667633057,,,,,,
1764808614.968594,,,,,,,0.016330420970916748,0.031796813011169434,-0.029132191091775894,0.25343772768974304,0.4220835864543915,0.35455602407455444
1764808614.972652,0.10091595068871974,0.039196284356713296,0.1261795712828636,0.15545515716075897,0.4859585464000702,-0.4062880873680115,,,,,,
1764808614.978624,,,,,,,0.00783759355545044,0.04016238451004028,-0.026051342487335205,0.28873565793037415,0.4266173541545868,0.3499690890312195
1764808614.982704,0.14776450336426494,0.0007306523621082306,0.1092489312807098,0.16887113451957703,0.501679003238678,-0.38901078701019287,,,,,,
1764808614.988654,,,,,,,-0.00024318695068359375,0.040612101554870605,-0.022501349449157715,0.32051780819892883,0.43164247274398804,0.34319400787353516
1764808614.992756,0.20776976699382066,0.021018238109350204,0.06792257609274238,0.18568074703216553,0.5221914649009705,-0.3667435646057129,,,,,,
1764808614.998684,,,,,,,-0.005110263824462891,0.03532874584197998,-0.027683794498443604,0.3512345254421234,0.43052634596824646,0.3262476921081543
1764808615.002808,0.2707303732976317,0.0006739537388086318,0.056634910413622855,0.18977013230323792,0.5337885022163391,-0.3417181670665741,,,,,,
1764808615.008714,,,,,,,-0.007200479507446289,0.029549062252044678,-0.032919466495513916,0.3720228970050812,0.4294714629650116,0.29540881514549255
1764808615.012861,0.31482261300235986,-0.0844523071438074,0.11687686887588351,0.1753682941198349,0.5272216796875,-0.3237096071243286,,,,,,
1764808615.018745,,,,,,,-0.003109276294708252,0.03755098581314087,-0.03590857982635498,0.38627174496650696,0.42541733384132385,0.27172794938087463
1764808615.022913,0.34735739364325996,-0.14226327559947965,0.11960196472452952,0.15564046800136566,0.5082449913024902,-0.3101707398891449,,,,,,
1764808615.028775,,,,,,,0.002015352249145508,0.047815799713134766,-0.03199422359466553,0.39358213543891907,0.399142861366272,0.25886088609695435
1764808615.032965,0.37113223698437214,-0.12155191148221492,0.006523264288902282,0.15082761645317078,0.49586233496665955,-0.2983500361442566,,,,,,
1764808615.038805,,,,,,,0.004233121871948242,0.04435080289840698,-0.029262004420161247,0.3868819773197174,0.3653058111667633,0.25208425521850586
1764808615.043018,0.40854105340242386,-0.06799918499290943,-0.12471592847108841,0.15886877477169037,0.4929075241088867,-0.28241559863090515,,,,,,
1764808615.048835,,,,,,,-0.003828883171081543,0.030232131481170654,-0.022136090323328972,0.34647810459136963,0.33787471055984497,0.23115715384483337
1764808615.05307,0.4581003263413906,-0.08180266941785812,-0.1696136210734956,0.1747683882713318,0.486311137676239,-0.2600972354412079,,,,,,
1764808615.058865,,,,,,,-0.015509963035583496,0.018409013748168945,-0.010100126266479492,0.2957670986652374,0.32815203070640564,0.20397025346755981
1764808615.063122,0.4748989009290933,-0.1750350798666477,-0.13214752151025458,0.18255579471588135,0.470416784286499,-0.23365704715251923,,,,,,
1764808615.068896,,,,,,,-0.029506266117095947,0.021670520305633545,-0.001721678301692009,0.23975761234760284,0.33182239532470703,0.19230881333351135
1764808615.073174,0.4599319256827235,-0.24855215149819848,-0.12384851625310256,0.18718942999839783,0.44482672214508057,-0.2160160094499588,,,,,,
1764808615.078926,,,,,,,-0.038636088371276855,0.034336209297180176,-0.003946185111999512,0.22315235435962677,0.3332546651363373,0.16626183688640594
1764808615.083226,0.4426841460227966,-0.26261983981728554,-0.15146657275259495,0.19337189197540283,0.4131096303462982,-0.1963140070438385,,,,,,
1764808615.088956,,,,,,,-0.03765064477920532,0.05204206705093384,-0.016543209552764893,0.19623684883117676,0.3339473307132721,0.12143418192863464
1764808615.093278,0.4676394313201308,-0.21166882025897502,-0.12758940154816956,0.20114459097385406,0.3789905607700348,-0.17065231502056122,,,,,,
1764808615.098986,,,,,,,-0.031230926513671875,0.07460767030715942,-0.0207940936088562,0.13385535776615143,0.3087511658668518,0.07501707226037979
1764808615.103331,0.5348872134238482,-0.1528758550286293,-0.14042553877830505,0.21334676444530487,0.3581315577030182,-0.1360025554895401,,,,,,
1764808615.109016,,,,,,,-0.02231884002685547,0.08031636476516724,-0.01762491464614868,0.07031232863664627,0.27261820435523987,0.029308175668120384
1764808615.113383,0.5744812649264931,-0.15921324135661125,-0.21933831370724363,0.22913211584091187,0.3592039942741394,-0.09533663094043732,,,,,,
1764808615.119046,,,,,,,-0.02519381046295166,0.07437795400619507,-0.01408153772354126,-0.01041790284216404,0.263904333114624,-0.020318832248449326
1764808615.123435,0.6090206633880734,-0.160478146725893,-0.3001175035625696,0.24205510318279266,0.36338964104652405,-0.052653200924396515,,,,,,
1764808615.129077,,,,,,,-0.03769516944885254,0.08128631114959717,-0.008948503993451595,-0.07906141132116318,0.26217302680015564,-0.07565958797931671
1764808615.133488,0.6293012348726391,-0.13275368897616863,-0.35375089407265187,0.2640208601951599,0.35935840010643005,-0.011277001351118088,,,,,,
1764808615.139107,,,,,,,-0.0428617000579834,0.08789074420928955,-0.0008970499038696289,-0.1432178020477295,0.25773513317108154,-0.13561220467090607
1764808615.14354,0.6558996112018823,-0.08637246155142783,-0.3853214693238958,0.29267618060112,0.34695613384246826,0.029654309153556824,,,,,,
1764808615.149137,,,,,,,-0.04209733009338379,0.09007751941680908,0.009429633617401123,-0.22697262465953827,0.25175899267196655,-0.20134860277175903
1764808615.153592,0.6464227578043937,-0.001378302615880966,-0.40445875252485275,0.32522428035736084,0.33181899785995483,0.07413122802972794,,,,,,
1764808615.159167,,,,,,,-0.038114309310913086,0.09309601783752441,0.01760774850845337,-0.3483126759529114,0.24548113346099854,-0.290566623210907
1764808615.163644,0.6326826940044761,0.10620412022471427,-0.4333721643308177,0.36675864458084106,0.3191852569580078,0.11702971905469894,,,,,,
1764808615.169197,,,,,,,-0.033690035343170166,0.1031838059425354,0.024591803550720215,-0.433141827583313,0.2350601851940155,-0.37634357810020447
1764808615.173697,0.6664993311494588,0.18583470630049703,-0.4836012262901291,0.4204748868942261,0.2986493408679962,0.16583934426307678,,,,,,
1764808615.179227,,,,,,,-0.031811416149139404,0.12874531745910645,0.02348506450653076,-0.4706277847290039,0.23252297937870026,-0.4755812883377075
1764808615.183749,0.755295804977417,0.23823300205767153,-0.4955699695685878,0.4787352681159973,0.2681337296962738,0.2211991399526596,,,,,,
1764808615.189257,,,,,,,-0.032386064529418945,0.17143094539642334,0.024140357971191406,-0.49206915497779846,0.23797234892845154,-0.5756106972694397
1764808615.193801,0.890935863044858,0.30054069741070266,-0.5225958505949005,0.5409985780715942,0.24391412734985352,0.28652969002723694,,,,,,
1764808615.199287,,,,,,,-0.03250908851623535,0.20904773473739624,0.021059514954686165,-0.5049220323562622,0.2454845905303955,-0.6708695292472839
1764808615.203854,0.9874541632965207,0.3414309262037277,-0.5911036061644553,0.6003989577293396,0.2590218782424927,0.3632655739784241,,,,,,
1764808615.209316,,,,,,,-0.03160130977630615,0.21874088048934937,0.015151383355259895,-0.4961051344871521,0.2577180862426758,-0.7594609260559082
1764808615.213906,1.0776976210623979,0.3889437880069017,-0.6689905634433031,0.6563884019851685,0.3103921413421631,0.4470052123069763,,,,,,
1764808615.219347,,,,,,,-0.02826833724975586,0.21801388263702393,0.013842107728123665,-0.504121720790863,0.28873059153556824,-0.8467027544975281
1764808615.223958,1.2074462830036878,0.4780459667831659,-0.6907470526993275,0.7150565981864929,0.3696470558643341,0.5329592227935791,,,,,,
1764808615.229377,,,,,,,-0.01677846908569336,0.2397928237915039,0.005811689421534538,-0.4909818768501282,0.311383992433548,-0.9174256920814514
1764808615.234011,1.3657725123926996,0.5214192445635796,-0.6788215640407055,0.7735329270362854,0.3981996178627014,0.6253179311752319,,,,,,
1764808615.239408,,,,,,,-0.004063963890075684,0.26215672492980957,-0.006415132433176041,-0.4152819514274597,0.31518563628196716,-0.9976987242698669
1764808615.244063,1.5771575472742319,0.5118558819264173,-0.5740226709714159,0.820921003818512,0.38256746530532837,0.7282229065895081,,,,,,
1764808615.249438,,,,,,,0.0009839534759521484,0.28617238998413086,-0.013064030557870865,-0.33816879987716675,0.3274063467979431,-1.0952014923095703
1764808615.254115,1.745847057506442,0.48995267767608164,-0.539480970954895,0.8615536689758301,0.35201942920684814,0.827302098274231,,,,,,
1764808615.259468,,,,,,,0.006492137908935547,0.3070605397224426,-0.016373280435800552,-0.22740083932876587,0.3373924195766449,-1.16903817653656
1764808615.264167,1.8442983716472983,0.4401052354454994,-0.5879617279421537,0.8903824090957642,0.3145027160644531,0.9195234775543213,,,,,,
1764808615.269498,,,,,,,0.010266423225402832,0.30738914012908936,-0.01706266775727272,-0.08148092776536942,0.3523782789707184,-1.257914423942566
1764808615.27422,1.9088199436575173,0.5644938316583633,-0.6060691931713372,0.9304784536361694,0.27478164434432983,1.0077145099639893,,,,,,
1764808615.279528,,,,,,,0.004161715507507324,0.3148419260978699,-0.003770582377910614,0.035175222903490067,0.39074379205703735,-1.3763936758041382
1764808615.284272,1.9887050890162585,0.7631979564040898,-0.6642623658776283,0.9993530511856079,0.24492642283439636,1.1025118827819824,,,,,,
1764808615.289558,,,,,,,0.004781067371368408,0.33882248401641846,0.00728987529873848,0.0533590205013752,0.41106531023979187,-1.4991323947906494
1764808615.294324,2.0674080388531086,0.9628981064498424,-0.7528617827635258,1.0728754997253418,0.21593791246414185,1.202449917793274,,,,,,
1764808615.299588,,,,,,,0.02189934253692627,0.3465465307235718,0.01987433433532715,-0.010581551119685173,0.4121878147125244,-1.629003643989563
1764808615.304377,2.0157652376383544,1.1029156489491463,-0.7213076106578111,1.1446845531463623,0.17544595897197723,1.3005350828170776,,,,,,
1764808615.309618,,,,,,,0.04016953706741333,0.33390963077545166,0.03161216527223587,-0.09975110739469528,0.4134179353713989,-1.7900657653808594
1764808615.314429,1.9311340667963026,1.175101179715991,-0.707911537989974,1.2243537902832031,0.1328044980764389,1.4026570320129395,,,,,,
1764808615.319648,,,,,,,0.055401504039764404,0.3383033275604248,0.038758277893066406,-0.2400611937046051,0.4170345067977905,-1.9644347429275513
1764808615.324481,1.9129349777609108,1.23608902464211,-0.6911626477628946,1.318575143814087,0.09411799907684326,1.5085095167160034,,,,,,
1764808615.329678,,,,,,,0.06972885131835938,0.36333101987838745,0.03996645659208298,-0.3536492586135864,0.41812559962272644,-2.115023612976074
1764808615.334534,1.942845547378063,1.2602169192045927,-0.6815607066810131,1.4140297174453735,0.09314781427383423,1.6234365701675415,,,,,,
1764808615.339708,,,,,,,0.08324718475341797,0.3616318702697754,0.03278625011444092,-0.4729476571083069,0.4192068576812744,-2.2477755546569824
1764808615.344587,1.978757987758517,1.2086065589547157,-0.5969575928896665,1.4893896579742432,0.1515003740787506,1.7310075759887695,,,,,,
1764808615.349738,,,,,,,0.08669847249984741,0.3384207487106323,0.02448035031557083,-0.6272816061973572,0.4317825734615326,-2.4295654296875
1764808615.354638,1.984976131621003,1.01118779784441,-0.48277942504584787,1.540795922279358,0.2733061909675598,1.834080457687378,,,,,,
1764808615.359769,,,,,,,0.07850492000579834,0.343265175819397,0.018560051918029785,-0.7629650831222534,0.48892948031425476,-2.5978586673736572
1764808615.364691,1.9294892221987245,0.8193786933094263,-0.4567996190063655,1.5807838439941406,0.42418020963668823,1.9321091175079346,,,,,,
1764808615.369799,,,,,,,0.07312667369842529,0.3905864357948303,-7.510185241699219e-06,-0.7653816342353821,0.5579373240470886,-2.692746639251709
1764808615.374743,1.94337337064445,0.7625906381607055,-0.5725806920021772,1.6144083738327026,0.5798856616020203,2.0342671871185303,,,,,,
1764808615.379829,,,,,,,0.07427698373794556,0.4527854919433594,-0.021993055939674377,-0.6648650765419006,0.6134812235832214,-2.773796558380127
1764808615.384795,2.1334616427361963,0.8099258053094148,-0.7748392943590879,1.640418291091919,0.7161404490470886,2.151751756668091,,,,,,
1764808615.389859,,,,,,,0.07516443729400635,0.5034662485122681,-0.010485410690307617,-0.4875451326370239,0.688969612121582,-2.8799099922180176
1764808615.394847,2.5145208149731157,0.9947738386601209,-0.9320137233644723,1.6640267372131348,0.8189474940299988,2.283059597015381,,,,,,
1764808615.399889,,,,,,,0.08407574892044067,0.5326191186904907,0.009994372725486755,-0.3022180199623108,0.734699547290802,-2.980210065841675
1764808615.4049,2.89827521764338,1.1054174026370047,-1.1522159786909818,1.6927140951156616,0.8701735138893127,2.4158971309661865,,,,,,
1764808615.409919,,,,,,,0.10631686449050903,0.5416175723075867,0.03573417663574219,-0.14801912009716034,0.7247033715248108,-3.0817995071411133
1764808615.414952,3.1733535570174456,1.0643038864821195,-1.2844627410583198,1.7172132730484009,0.8559607267379761,2.548243284225464,,,,,,
1764808615.419949,,,,,,,0.11849391460418701,0.530891478061676,0.06064176559448242,-0.03449222072958946,0.7314987182617188,-3.1713614463806152
1764808615.425004,3.363912953752279,0.9503817392259836,-1.3001578844487667,1.7516837120056152,0.8005893230438232,2.6705291271209717,,,,,,
1764808615.429979,,,,,,,0.11712992191314697,0.5045013427734375,0.07965897023677826,-0.05128105357289314,0.7500801086425781,-3.259427070617676
1764808615.435057,3.4752392392963167,0.8863333376854657,-1.359709412961453,1.8022925853729248,0.752564549446106,2.780841112136841,,,,,,
1764808615.440009,,,,,,,0.10792717337608337,0.46192777156829834,0.1107090562582016,-0.14452363550662994,0.7951330542564392,-3.3535640239715576
1764808615.445109,3.4953730957865714,0.8456360011160373,-1.2948311364680527,1.8530099391937256,0.7063801288604736,2.878610372543335,,,,,,
1764808615.450039,,,,,,,0.0975458025932312,0.41202032566070557,0.1396303027868271,-0.3165057897567749,0.8864302039146423,-3.450631618499756
1764808615.455161,3.4770115096658465,0.8862181868731975,-1.2089485042601824,1.8880198001861572,0.6466805934906006,2.9811253547668457,,,,,,
1764808615.460069,,,,,,,0.10101565718650818,0.41344940662384033,0.15436969697475433,-0.48073744773864746,0.9650696516036987,-3.5316214561462402
1764808615.465214,3.3722564192056654,1.0205267040759325,-1.3345251412138341,1.9217524528503418,0.5862182378768921,3.087224006652832,,,,,,
1764808615.4701,,,,,,,0.12166997790336609,0.4268818497657776,0.1466139703989029,-0.5198819041252136,1.011987328529358,-3.583873748779297
1764808615.475266,3.1840076375007627,1.1115519598692656,-1.5630148940227926,1.950562596321106,0.5391052961349487,3.1647419929504395,,,,,,
1764808615.48013,,,,,,,0.13800829648971558,0.4441482424736023,0.15478718280792236,-0.5524510741233826,1.0743571519851685,-3.634777545928955
1764808615.485318,3.068320818659663,1.1479308487176894,-1.7125965298116206,1.9812383651733398,0.5155409574508667,3.2213504314422607,,,,,,
1764808615.49016,,,,,,,0.1493193507194519,0.47296082973480225,0.16804002225399017,-0.5320517420768738,1.140278935432434,-3.677661895751953
1764808615.49537,3.139018741217255,1.123324522988498,-1.7736930958092212,2.0031490325927734,0.49871858954429626,3.286656379699707,,,,,,
1764808615.50019,,,,,,,0.15801620483398438,0.4560428857803345,0.15913057327270508,-0.5079302787780762,1.1861311197280884,-3.695523738861084
1764808615.505423,3.1344851894408463,1.0715201014712452,-1.648338869434595,2.002833843231201,0.48488444089889526,3.3684444427490234,,,,,,
1764808615.51022,,,,,,,0.16608382761478424,0.39719969034194946,0.1785566657781601,-0.4912719428539276,1.2785478830337524,-3.745283365249634
1764808615.515475,2.9618530790627,1.1469313162863255,-1.5215379513829945,1.9992300271987915,0.4717089831829071,3.4593400955200195,,,,,,
1764808615.52025,,,,,,,0.1726192831993103,0.38543200492858887,0.22936215996742249,-0.5809751152992249,1.3739374876022339,-3.813802719116211
1764808615.525527,2.672633986133337,1.4467176881983876,-1.6566127767831087,2.0231523513793945,0.4506816267967224,3.5482735633850098,,,,,,
1764808615.53028,,,,,,,0.19839265942573547,0.4056670665740967,0.22843287885189056,-0.693476676940918,1.4271551370620728,-3.8857688903808594
1764808615.53558,2.3519717071920634,1.8462837002456187,-1.7819132271438836,2.0533387660980225,0.39913004636764526,3.6339566707611084,,,,,,
1764808615.54031,,,,,,,0.235377699136734,0.36119914054870605,0.24090400338172913,-0.7828530073165894,1.5318338871002197,-3.926481008529663
1764808615.545632,2.1590806526392696,2.2423367357358335,-1.7822189320921897,2.06462025642395,0.33211901783943176,3.7067463397979736,,,,,,
1764808615.55034,,,,,,,0.27304109930992126,0.32555049657821655,0.2615179121494293,-0.8524786829948425,1.6163381338119507,-3.9619719982147217
1764808615.555684,2.0438316406935453,2.5843919313177466,-1.7891045999526975,2.052347421646118,0.2521778345108032,3.7399990558624268,,,,,,
1764808615.56037,,,,,,,0.3227817416191101,0.33766019344329834,0.27219367027282715,-0.900434672832489,1.6561907529830933,-4.011857509613037
1764808615.565737,1.9673387681216001,2.8277561587840316,-1.7706448141545057,2.057778835296631,0.13380253314971924,3.7512848377227783,,,,,,
1764808615.5704,,,,,,,0.3708493113517761,0.3423346281051636,0.28755319118499756,-0.9461856484413147,1.6849238872528076,-4.055901527404785
1764808615.575789,1.9348247380077839,3.030091333508491,-1.821774989672005,2.091609239578247,-0.0209239199757576,3.7911336421966553,,,,,,
1764808615.580431,,,,,,,0.41067567467689514,0.2877312898635864,0.3021911382675171,-1.0119097232818604,1.7117369174957275,-4.049356460571289
1764808615.585841,1.8304045785903929,3.3451600302264093,-1.8285250484541058,2.1380245685577393,-0.14333544671535492,3.8390939235687256,,,,,,
1764808615.59046,,,,,,,0.4307548403739929,0.23773419857025146,0.3324448764324188,-1.1288584470748901,1.7407666444778442,-4.041828632354736
1764808615.595894,1.5428326683461666,3.560934824499488,-1.9161206220597027,2.1821200847625732,-0.23041468858718872,3.8773610591888428,,,,,,
1764808615.600491,,,,,,,0.4395925998687744,0.19980782270431519,0.31060290336608887,-1.1523314714431763,1.7608284950256348,-3.993384838104248
1764808615.605946,1.0671095915526152,3.5642552010938524,-1.8139970491468906,2.1973378658294678,-0.29787495732307434,3.8868966102600098,,,,,,
1764808615.610521,,,,,,,0.4409993290901184,0.1710919737815857,0.2816045880317688,-1.1884667873382568,1.7906767129898071,-3.9674253463745117
1764808615.615998,0.5293927076607943,3.3752491712808608,-1.6472791312485933,2.1860125064849854,-0.33367210626602173,3.856518507003784,,,,,,
1764808615.620551,,,,,,,0.43430936336517334,0.18384569883346558,0.27034446597099304,-1.225419282913208,1.854644536972046,-3.942875862121582
1764808615.62605,0.10417115309238434,3.1829581284478303,-1.4803975472211837,2.1651227474212646,-0.3453385829925537,3.817096710205078,,,,,,
1764808615.630581,,,,,,,0.4464974105358124,0.18108057975769043,0.251352459192276,-1.235292911529541,1.889250636100769,-3.9009573459625244
1764808615.636103,-0.19139350947141645,3.196582749174535,-1.3596885163038968,2.163816213607788,-0.3179064393043518,3.7854042053222656,,,,,,
1764808615.640611,,,,,,,0.4746440351009369,0.15114927291870117,0.26507946848869324,-1.2741037607192993,1.9557775259017944,-3.872878074645996
1764808615.646155,-0.33297230993807314,3.493970827773213,-1.2898740985825656,2.1772327423095703,-0.26763954758644104,3.7701642513275146,,,,,,
1764808615.650641,,,,,,,0.49547553062438965,0.15518754720687866,0.2944198548793793,-1.2486553192138672,2.0721282958984375,-3.777700424194336
1764808615.656207,-0.38418928695619103,3.954860492572188,-1.212665771217644,2.1928927898406982,-0.18802165985107422,3.7820496559143066,,,,,,
1764808615.660671,,,,,,,0.5201072096824646,0.13948696851730347,0.2418036162853241,-1.0779176950454712,2.093240737915039,-3.6546630859375
1764808615.66626,-0.5204524453580379,3.9705446761772034,-1.1067819689884781,2.1894357204437256,-0.08607690781354904,3.781858205795288,,,,,,
1764808615.670701,,,,,,,0.5255236625671387,0.09712356328964233,0.18205228447914124,-0.9023352265357971,2.1002604961395264,-3.569821834564209
1764808615.676312,-0.7675099743843078,3.4551515600353477,-0.8259265075176954,2.1579983234405518,0.006020796950906515,3.7182135581970215,,,,,,
1764808615.680731,,,,,,,0.49851998686790466,0.04829108715057373,0.1550634205341339,-0.7338464260101318,2.151365041732788,-3.453564167022705
1764808615.686364,-1.023764955344796,2.820025272271037,-0.4997387431532144,2.1121530532836914,0.0545344352722168,3.589128255844116,,,,,,
1764808615.690761,,,,,,,0.4768167734146118,0.006286501884460449,0.16894659399986267,-0.6805137395858765,2.2188379764556885,-3.357860565185547
1764808615.696416,-1.0608540382891893,2.579355398455262,-0.4135337471231818,2.087738275527954,0.06699536740779877,3.4443154335021973,,,,,,
1764808615.700792,,,,,,,0.4706786274909973,0.017721831798553467,0.20138227939605713,-0.7377911806106567,2.2929768562316895,-3.2833220958709717
1764808615.706469,-0.8443611588746309,2.8291619339287277,-0.48017011933028697,2.091006278991699,0.07458852976560593,3.343245029449463,,,,,,
1764808615.710822,,,,,,,0.4813729524612427,0.0112343430519104,0.17634591460227966,-0.7070132493972778,2.349740505218506,-3.1215710639953613
1764808615.716521,-0.5946586682975292,3.0892355963945386,-0.40960576002448795,2.0972371101379395,0.1180337443947792,3.284745454788208,,,,,,
1764808615.720852,,,,,,,0.4855723977088928,-0.045674264430999756,0.12793400883674622,-0.6408160924911499,2.3772284984588623,-2.9750986099243164
1764808615.726573,-0.5230594129860401,3.0169553730815646,-0.16322189247608185,2.0737099647521973,0.16897429525852203,3.2372047901153564,,,,,,
1764808615.730882,,,,,,,0.4546818733215332,-0.06279033422470093,0.10867998003959656,-0.5243861079216003,2.41445255279541,-2.842343330383301
1764808615.736626,-0.6919961759775877,2.592252289429307,-0.06309124694615602,2.0438787937164307,0.19767332077026367,3.151823043823242,,,,,,
1764808615.740912,,,,,,,0.41686052083969116,-0.05585217475891113,0.10339438915252686,-0.41412094235420227,2.424330472946167,-2.7304182052612305
1764808615.746678,-0.9437357253402471,2.1357819023773073,-0.21476912436187265,2.0226874351501465,0.18960364162921906,3.0252559185028076,,,,,,
1764808615.750942,,,,,,,0.38039207458496094,-0.026381731033325195,0.11816886067390442,-0.31901735067367554,2.456437349319458,-2.628568172454834
1764808615.75673,-1.0529174000710249,1.9690531708240508,-0.3418511974424124,1.9977569580078125,0.18955036997795105,2.8956727981567383,,,,,,
1764808615.760972,,,,,,,0.36583441495895386,-0.021346569061279297,0.13034556806087494,-0.25205546617507935,2.475867986679077,-2.5364530086517334
1764808615.766783,-0.9571598550587892,2.134098187074065,-0.48020372933894395,1.9742577075958252,0.2351590096950531,2.793654680252075,,,,,,
1764808615.771002,,,,,,,0.379188597202301,-0.043739140033721924,0.14701810479164124,-0.22435404360294342,2.4667158126831055,-2.4344701766967773
1764808615.776835,-0.8659428760856389,2.294488655516505,-0.713969961246103,1.9683921337127686,0.29017752408981323,2.72225284576416,,,,,,
1764808615.781032,,,,,,,0.389346182346344,-0.06297779083251953,0.15350303053855896,-0.17895099520683289,2.4453070163726807,-2.349696397781372
1764808615.786887,-0.7308247960656881,2.3160873238623143,-0.8390656828150153,1.9750518798828125,0.3233160078525543,2.666505813598633,,,,,,
1764808615.791062,,,,,,,0.3654296398162842,-0.0539400577545166,0.17193792760372162,-0.1571330428123474,2.445040702819824,-2.2861204147338867
1764808615.796939,-0.6303951675891876,2.363002219772339,-0.9564566752254963,1.9864283800125122,0.33609649538993835,2.618062973022461,,,,,,
1764808615.801092,,,,,,,0.33811885118484497,-0.045904576778411865,0.17441582679748535,-0.2261897325515747,2.421306848526001,-2.2433650493621826
1764808615.806992,-0.49632571983933443,2.4107021285802124,-0.955572147475928,1.9834169149398804,0.2814132273197174,2.5742828845977783,,,,,,
1764808615.811122,,,,,,,0.3401426076889038,-0.08209741115570068,0.1780470460653305,-0.3081762194633484,2.4205501079559326,-2.1462271213531494
1764808615.817044,-0.3859808465480804,2.335423307973146,-0.7188701543778181,1.9619771242141724,0.18411943316459656,2.5290629863739014,,,,,,
1764808615.821153,,,,,,,0.3510933518409729,-0.1020546555519104,0.17732858657836914,-0.3619970381259918,2.4013619422912598,-2.0716919898986816
1764808615.827096,-0.3388251276195049,2.2597820837944744,-0.6590684504963458,1.9380316734313965,0.10538651794195175,2.4711496829986572,,,,,,
1764808615.831182,,,,,,,0.35455262660980225,-0.0872718095779419,0.16282963752746582,-0.37004485726356506,2.3670494556427,-2.012052297592163
1764808615.837149,-0.45290392674207686,2.322842643341422,-0.7185515899479389,1.9150121212005615,0.06697734445333481,2.4079973697662354,,,,,,
1764808615.841213,,,,,,,0.3579970598220825,-0.07196468114852905,0.1381312608718872,-0.35858607292175293,2.338836193084717,-1.945479393005371
1764808615.847201,-0.6457499731093644,2.4766689309626817,-0.6332528951078653,1.8842194080352783,0.05183804780244827,2.3524653911590576,,,,,,
1764808615.851243,,,,,,,0.3642716407775879,-0.06281232833862305,0.10701429098844528,-0.3077777624130249,2.2958357334136963,-1.8736331462860107
1764808615.857253,-0.9056260671764612,2.4709026225209234,-0.45517654784917827,1.8392897844314575,0.05398641899228096,2.3094098567962646,,,,,,
1764808615.861273,,,,,,,0.36262887716293335,-0.05143624544143677,0.07304978370666504,-0.29163500666618347,2.2388551235198975,-1.8348548412322998
1764808615.867305,-1.1360580400943756,2.318850943356752,-0.21763145499043166,1.769415259361267,0.043882425874471664,2.268242120742798,,,,,,
1764808615.871303,,,,,,,0.36609768867492676,-0.037643998861312866,0.04375624284148216,-0.2659362852573395,2.1846673488616943,-1.7938991785049438
1764808615.877358,-1.2037211250007152,2.200379462233186,0.08354461771436035,1.6842327117919922,0.025642966851592064,2.2241628170013428,,,,,,
1764808615.881333,,,,,,,0.3852599859237671,-0.020504802465438843,0.006295917555689812,-0.2613482177257538,2.086441993713379,-1.7821112871170044
1764808615.88741,-1.1774854445040226,2.3107728508412837,0.3085317692298442,1.578346610069275,0.011505681090056896,2.19016695022583,,,,,,
1764808615.891363,,,,,,,0.4115525484085083,-0.011998414993286133,-0.05624973773956299,-0.27694249153137207,1.976874828338623,-1.7641613483428955
1764808615.897462,-1.061499934977293,2.5081822596013543,0.6696130792558193,1.4411274194717407,-0.020046386867761612,2.155611276626587,,,,,,
1764808615.901393,,,,,,,0.4468603730201721,-0.024996459484100342,-0.08081257343292236,-0.3013422191143036,1.8692787885665894,-1.7362231016159058
1764808615.907515,-0.9817565361768007,2.6715345004588364,0.8523112410962581,1.3202786445617676,-0.06701229512691498,2.123926877975464,,,,,,
1764808615.911423,,,,,,,0.4666714072227478,-0.02922305464744568,-0.09263253211975098,-0.36929330229759216,1.7328895330429077,-1.7292075157165527
1764808615.917567,-0.9315718248158693,2.8710622165471316,0.7507868031203746,1.22214674949646,-0.14863471686840057,2.10113525390625,,,,,,
1764808615.921453,,,,,,,0.46574169397354126,-0.06579393148422241,-0.08977347612380981,-0.4375302791595459,1.6044535636901855,-1.7043125629425049
1764808615.927619,-0.9222948779046535,2.842858450847864,0.6244687001496553,1.133826732635498,-0.25429338216781616,2.0656111240386963,,,,,,
1764808615.931483,,,,,,,0.43813151121139526,-0.09986069798469543,-0.0685114786028862,-0.49356532096862793,1.4970167875289917,-1.7016782760620117
1764808615.937672,-1.0027005400061606,2.6104052012354133,0.4646428798526525,1.0554126501083374,-0.3528348505496979,2.014481782913208,,,,,,
1764808615.941514,,,,,,,0.39250844717025757,-0.08845359086990356,-0.07023858278989792,-0.5051709413528442,1.391351342201233,-1.6823177337646484
1764808615.947724,-1.1719681423872708,2.3626953457802533,0.45988545619249344,0.9753283858299255,-0.4175773859024048,1.9544155597686768,,,,,,
1764808615.951544,,,,,,,0.3694877028465271,-0.09415411949157715,-0.08727919310331345,-0.569664478302002,1.2535674571990967,-1.6790484189987183
1764808615.957776,-1.2964759810656308,2.0381296296596525,0.42076223707199095,0.8919485211372375,-0.43402212858200073,1.8905129432678223,,,,,,
1764808615.961574,,,,,,,0.3519774079322815,-0.11533588171005249,-0.08607595413923264,-0.6907303333282471,1.149093508720398,-1.6554561853408813
1764808615.967828,-1.3174395663782954,1.7850871810048818,0.32651392757892606,0.7952582836151123,-0.42285609245300293,1.8213529586791992,,,,,,
1764808615.971604,,,,,,,0.3359677195549011,-0.1287333369255066,-0.07895981520414352,-0.7994301915168762,1.040094017982483,-1.6207101345062256
1764808615.977881,-1.2763976541548967,1.517264511847496,0.2238578369583003,0.6917465329170227,-0.365951269865036,1.7466195821762085,,,,,,
1764808615.981633,,,,,,,0.30801922082901,-0.09130477905273438,-0.0292930006980896,-0.8017045259475708,0.9857666492462158,-1.572973370552063
1764808615.987933,-1.0559507764175533,1.4509347213715313,-0.13364508485794066,0.6437916159629822,-0.2541996240615845,1.6817890405654907,,,,,,
1764808615.991664,,,,,,,0.2585732936859131,-0.05788096785545349,-0.007099561393260956,-0.7235513925552368,0.9391744136810303,-1.5053982734680176
1764808615.997985,-1.0072788077071309,1.5622317808210848,-0.205007024282217,0.6454092264175415,-0.17665185034275055,1.589545488357544,,,,,,
1764808616.001694,,,,,,,0.21065515279769897,-0.05833318829536438,-0.00833439826965332,-0.7285647988319397,0.9242426156997681,-1.4560493230819702
1764808616.008038,-1.5655983346447349,1.3975789787590502,0.18172317932844162,0.6574534773826599,-0.12772755324840546,1.473741888999939,,,,,,
1764808616.011724,,,,,,,0.19364160299301147,-0.0970245897769928,0.0014289021492004395,-0.7264806032180786,0.9354896545410156,-1.2916561365127563
1764808616.01809,-0.7120534601002931,1.6646493682444095,0.4081856640934944,0.6627941727638245,-0.10750377923250198,1.4905643463134766,,,,,,
1764808616.021754,,,,,,,0.2245287299156189,-0.06239962577819824,-0.032869502902030945,-0.4508856236934662,0.9158679842948914,-1.295570969581604
1764808616.028142,-0.35184739853888747,1.9486223772138356,0.747100808084011,0.6295420527458191,-0.15325650572776794,1.4676235914230347,,,,,,
1764808616.031784,,,,,,,0.23180019855499268,-0.016341298818588257,-0.10131412744522095,-0.2779170274734497,0.8289461731910706,-1.2269940376281738
1764808616.038194,-1.0905798989892006,1.728420121887326,0.9876409180402755,0.5630740523338318,-0.16418132185935974,1.3721479177474976,,,,,,
1764808616.041814,,,,,,,0.25594496726989746,-0.06376294791698456,-0.11833316087722778,-0.25198641419410706,0.8038466572761536,-1.1446874141693115
1764808616.048247,-1.192208674122393,1.457625158920884,0.8471803079485892,0.4894874691963196,-0.14448876678943634,1.2713607549667358,,,,,,
1764808616.051844,,,,,,,0.26641398668289185,-0.11939564347267151,-0.12476253509521484,-0.1839762181043625,0.7452232837677002,-1.0590617656707764
1764808616.058299,-1.373313721552491,1.3328197986006736,0.7697931899506598,0.41491734981536865,-0.14824888110160828,1.1493932008743286,,,,,,
1764808616.061875,,,,,,,0.26592278480529785,-0.113321453332901,-0.15402279794216156,-0.13433711230754852,0.6518707275390625,-0.9885273575782776
1764808616.068351,-1.45545073749125,1.41380530641675,0.8236509638011456,0.3437202572822571,-0.18199898302555084,1.0237982273101807,,,,,,
1764808616.071904,,,,,,,0.26741456985473633,-0.1210939884185791,-0.1478670835494995,-0.11234872043132782,0.582791268825531,-0.8967316746711731
1764808616.078405,-1.4269874440729617,1.491262640106678,0.6431821684479713,0.2895480990409851,-0.1923096776008606,0.9004346132278442,,,,,,
1764808616.081934,,,,,,,0.2652038335800171,-0.16051511466503143,-0.12388746440410614,-0.13091953098773956,0.4947018623352051,-0.8095070719718933
1764808616.088457,-1.38697662846297,1.2993699489414692,0.3467430611371994,0.23441824316978455,-0.17423129081726074,0.7864055633544922,,,,,,
1764808616.091964,,,,,,,0.247730553150177,-0.17884840071201324,-0.08360666036605835,-0.1339334398508072,0.43154606223106384,-0.7014559507369995
1764808616.098509,-1.250344929009676,1.3538064725279808,0.17128602953143418,0.196242094039917,-0.1695214807987213,0.6781073212623596,,,,,,
1764808616.101994,,,,,,,0.23830699920654297,-0.17314237356185913,-0.05917881429195404,-0.11787036061286926,0.34042176604270935,-0.6041853427886963
1764808616.108561,-1.0709113219231365,1.6920885793119669,0.05361819294095039,0.18431119620800018,-0.17830027639865875,0.5721224546432495,,,,,,
1764808616.112024,,,,,,,0.23516970872879028,-0.16924448311328888,-0.058018758893013,-0.1355782449245453,0.2649621367454529,-0.5132346153259277
1764808616.118614,-1.0312746003225446,1.917584264871478,0.1625310606677085,0.16201333701610565,-0.18060818314552307,0.46379807591438293,,,,,,
1764808616.122054,,,,,,,0.25001418590545654,-0.17536261677742004,-0.07440978288650513,-0.15589231252670288,0.2036748230457306,-0.3943400979042053
1764808616.129294,-1.0936457163006066,2.1148206551522017,0.600009308610484,0.1104775071144104,-0.18237030506134033,0.346250057220459,,,,,,
1764808616.132084,,,,,,,0.2953377366065979,-0.1683599054813385,-0.0960807204246521,-0.15561774373054504,0.1251445859670639,-0.28237760066986084
1764808616.139346,-1.2104013334169983,2.353781386962533,0.9438484649997204,0.056407079100608826,-0.1857922077178955,0.23369100689888,,,,,,
1764808616.142114,,,,,,,0.34612172842025757,-0.143925741314888,-0.12896250188350677,-0.13867443799972534,0.03384210914373398,-0.16543368995189667
1764808616.149399,-1.3641484183222055,2.657863117980957,1.1318401301383971,-0.0041121914982795715,-0.1763550192117691,0.11361867189407349,,,,,,
1764808616.152144,,,,,,,0.38638848066329956,-0.14272789657115936,-0.1689523458480835,-0.10152707248926163,-0.07003795355558395,-0.049739573150873184
1764808616.159451,-1.5315210007369517,2.8153748161166905,1.293094521933794,-0.08865813165903091,-0.1855585277080536,-0.018039248883724213,,,,,,
1764808616.162174,,,,,,,0.412014901638031,-0.1478099226951599,-0.1937803030014038,-0.013380571268498898,-0.17269295454025269,0.07935217022895813
1764808616.169503,-1.7013281168222427,2.9164298830151556,1.3449720086872576,-0.1804710328578949,-0.17878086864948273,-0.16982467472553253,,,,,,
1764808616.172204,,,,,,,0.4381752610206604,-0.1289568990468979,-0.21299965679645538,0.09619013220071793,-0.29908257722854614,0.18263594806194305
1764808616.179556,-1.781940699672699,3.0674340989530084,1.315782154560089,-0.27098745107650757,-0.15906773507595062,-0.32595565915107727,,,,,,
1764808616.182235,,,,,,,0.4604048728942871,-0.13387741148471832,-0.20859652757644653,0.20876753330230713,-0.41486218571662903,0.31009945273399353
1764808616.189608,-1.8355945484489202,3.2712159653544424,1.2619570408701897,-0.35499101877212524,-0.12578913569450378,-0.48468539118766785,,,,,,
1764808616.192265,,,,,,,0.4769418239593506,-0.15283876657485962,-0.18978369235992432,0.30740460753440857,-0.5185797810554504,0.44838273525238037
1764808616.19966,-1.824960341709852,3.577918692526221,1.1934463992238045,-0.43300870060920715,-0.06499447673559189,-0.639767587184906,,,,,,
1764808616.202295,,,,,,,0.4991282820701599,-0.15064793825149536,-0.18355272710323334,0.4194745719432831,-0.628599226474762,0.5945886969566345
1764808616.209712,-1.81871647888422,3.8616502939552064,1.1960568009179084,-0.5085039734840393,0.008593189530074596,-0.7908729314804077,,,,,,
1764808616.212325,,,,,,,0.5263887047767639,-0.1573096215724945,-0.18277649581432343,0.49341723322868347,-0.7366290092468262,0.7455622553825378
1764808616.219765,-1.877533117251098,4.048253646540641,1.317345166093111,-0.5924462676048279,0.07026240974664688,-0.9467118382453918,,,,,,
1764808616.222355,,,,,,,0.5557307600975037,-0.16948583722114563,-0.18159329891204834,0.580611526966095,-0.8376911878585815,0.9145305752754211
1764808616.229817,-1.9571265861868856,4.240145168662071,1.490238557755947,-0.6981386542320251,0.1302531659603119,-1.1139986515045166,,,,,,
1764808616.232385,,,,,,,0.5937815308570862,-0.15549510717391968,-0.1937353014945984,0.687614381313324,-0.9595806002616882,1.0721620321273804
1764808616.239869,-1.9974346311777829,4.492284530997276,1.5136112500369547,-0.8109303712844849,0.1892145276069641,-1.28384530544281,,,,,,
1764808616.242414,,,,,,,0.6345171332359314,-0.1320807933807373,-0.20824766159057617,0.7981249094009399,-1.1176317930221558,1.2067570686340332
1764808616.249922,-1.9993036399200557,4.536728652879596,1.4009165987491607,-0.917085587978363,0.22852198779582977,-1.456225037574768,,,,,,
1764808616.252445,,,,,,,0.6522950530052185,-0.1446554809808731,-0.21128807961940765,0.8377897143363953,-1.2694677114486694,1.3470810651779175
1764808616.259974,-1.9664304211050272,4.517315511879325,1.329020406317711,-1.0219674110412598,0.2501206398010254,-1.6434639692306519,,,,,,
1764808616.262475,,,,,,,0.6504712104797363,-0.17491185665130615,-0.19776968657970428,0.8519520163536072,-1.383154034614563,1.5170788764953613
1764808616.270026,-1.9613290063127875,4.62006803034544,1.3493126682400702,-1.1346709728240967,0.27223101258277893,-1.838747501373291,,,,,,
1764808616.272505,,,,,,,0.6611570119857788,-0.20028775930404663,-0.17855757474899292,0.8822143077850342,-1.5175269842147827,1.6986960172653198
1764808616.280078,-1.9349223531633615,4.62689349245131,1.162590657711029,-1.2436888217926025,0.2998526096343994,-2.0372819900512695,,,,,,
1764808616.282535,,,,,,,0.6724299192428589,-0.2156076431274414,-0.16168946027755737,0.8673581480979919,-1.668942928314209,1.8639142513275146
1764808616.290131,-1.969407098828256,4.582745138645172,0.9556956277251243,-1.3601385354995728,0.31485870480537415,-2.2394497394561768,,,,,,
1764808616.292565,,,,,,,0.6774049997329712,-0.2228146493434906,-0.14555567502975464,0.842018723487854,-1.7622134685516357,2.0611069202423096
1764808616.300183,-2.0037655877649785,4.6372710940808055,0.9674906949371099,-1.4800591468811035,0.34692472219467163,-2.443018674850464,,,,,,
1764808616.302596,,,,,,,0.6920199394226074,-0.21311506628990173,-0.12419641017913818,0.8597033619880676,-1.861722469329834,2.263953447341919
1764808616.310235,-1.9753738982781768,4.664680494531988,0.9581798457562923,-1.5779004096984863,0.4214242398738861,-2.6387991905212402,,,,,,
1764808616.312626,,,,,,,0.697639524936676,-0.17717915773391724,-0.10300307720899582,0.9017966985702515,-1.9709988832473755,2.4413955211639404
1764808616.320288,-1.9511314374253153,4.818351299330592,0.9518973314207047,-1.6472117900848389,0.5035352110862732,-2.816636562347412,,,,,,
1764808616.322656,,,,,,,0.6948797106742859,-0.15234631299972534,-0.09835147857666016,0.9318937063217163,-2.0681495666503906,2.629145860671997
1764808616.33034,-1.860395812228322,4.965326990404725,0.8393044600069522,-1.70767080783844,0.5660204291343689,-2.9764633178710938,,,,,,
1764808616.332686,,,,,,,0.6943836808204651,-0.16260287165641785,-0.08590751886367798,0.9486319422721863,-2.179502010345459,2.819329023361206
1764808616.340392,-1.7038251943349838,4.674414537560939,0.6198394329138099,-1.7565196752548218,0.6040489077568054,-3.1400749683380127,,,,,,
1764808616.342716,,,,,,,0.6598151326179504,-0.16723954677581787,-0.0637139081954956,0.9460320472717285,-2.2518162727355957,2.995485544204712
1764808616.350444,-1.5606027183145283,4.3050154079794885,0.5187749405998736,-1.8010092973709106,0.6066164374351501,-3.3142058849334717,,,,,,
1764808616.352746,,,,,,,0.6158939003944397,-0.14729773998260498,-0.05207395553588867,0.9349594116210938,-2.2936787605285645,3.1493711471557617
1764808616.360497,-1.380954591694474,4.154941166368126,0.5492075613297521,-1.8494527339935303,0.5867887735366821,-3.4916892051696777,,,,,,
1764808616.362776,,,,,,,0.6064664721488953,-0.14240682125091553,-0.015188220888376236,0.9012801647186279,-2.343456506729126,3.2812650203704834
1764808616.370549,-1.1735726549744605,4.151768381550908,0.5888895103115588,-1.8846708536148071,0.5683929920196533,-3.6586251258850098,,,,,,
1764808616.372806,,,,,,,0.6146131157875061,-0.14245429635047913,0.020089149475097656,0.8456280827522278,-2.3594181537628174,3.420677423477173
1764808616.380601,-0.9876800810068845,4.388980223867297,0.5470101974159479,-1.9251530170440674,0.5668824911117554,-3.7982215881347656,,,,,,
1764808616.382836,,,,,,,0.6343560814857483,-0.11605018377304077,0.026659727096557617,0.817315936088562,-2.39056658744812,3.563502073287964
1764808616.390654,-0.875176568377018,4.6296267168074845,0.40968569339290256,-1.9840093851089478,0.5711941719055176,-3.9099342823028564,,,,,,
1764808616.392865,,,,,,,0.6653403639793396,-0.09376710653305054,0.03210437297821045,0.7855766415596008,-2.4988293647766113,3.7210235595703125
1764808616.400706,-0.812594147735834,4.461268045964837,-0.16499883902072907,-2.032987594604492,0.5682302117347717,-4.011246204376221,,,,,,
1764808616.402896,,,,,,,0.6644287109375,-0.0793723464012146,0.04061375558376312,0.6263309717178345,-2.645949602127075,3.8040223121643066
1764808616.410758,-0.6716507225632667,3.968972020033002,-0.6841454624772071,-2.0760648250579834,0.512389600276947,-4.118960380554199,,,,,,
1764808616.412926,,,,,,,0.6094659566879272,-0.09203457832336426,0.057854652404785156,0.5230706334114075,-2.6938812732696533,3.9367988109588623
1764808616.42081,-0.4667272849112749,3.465533253318071,-0.6425210741907358,-2.113349199295044,0.4484651982784271,-4.239982604980469,,,,,,
1764808616.422957,,,,,,,0.5537968873977661,-0.1193893551826477,0.09349071979522705,0.47887107729911804,-2.696188449859619,4.068439960479736
1764808616.430863,-0.2908843957930803,3.26004925917387,-0.36234497328624127,-2.141648054122925,0.4281167685985565,-4.371969699859619,,,,,,
1764808616.432987,,,,,,,0.5415474772453308,-0.09584206342697144,0.13587737083435059,0.4539865255355835,-2.680730104446411,4.14955997467041
1764808616.440915,-0.2904682162076235,3.4846313370198008,-0.061479281704872844,-2.137258768081665,0.4573526084423065,-4.490306377410889,,,,,,
1764808616.443017,,,,,,,0.5753491520881653,-0.05416184663772583,0.16816091537475586,0.4183720350265503,-2.6504006385803223,4.258136749267578
1764808616.450967,-0.3877840965777635,3.926572555720806,0.1043437331803143,-2.1244237422943115,0.5514606833457947,-4.58452033996582,,,,,,
1764808616.453047,,,,,,,0.6267380118370056,-0.030054211616516113,0.12571470439434052,0.4456492066383362,-2.6377477645874023,4.424377918243408
1764808616.46102,-0.6139262633472681,4.195970511370897,0.24324089334756135,-2.1362218856811523,0.6804177165031433,-4.675395488739014,,,,,,
1764808616.463077,,,,,,,0.6669927835464478,-0.04385542869567871,0.0436992347240448,0.3476881980895996,-2.6955313682556152,4.561980724334717
1764808616.471072,-0.7897001788824797,4.042897672465443,0.33717809106484053,-2.1917316913604736,0.7362484931945801,-4.776238918304443,,,,,,
1764808616.473107,,,,,,,0.6886754631996155,-0.025850355625152588,0.003564685583114624,0.09903951734304428,-2.805210828781128,4.534984111785889
1764808616.481124,-0.6284241597771644,3.5593884718403217,0.4927928695380687,-2.317551851272583,0.6654868721961975,-4.866372585296631,,,,,,
1764808616.483137,,,,,,,0.6983234286308289,0.06313443183898926,-0.00037026405334472656,-0.14050889015197754,-2.914393186569214,4.461147308349609
1764808616.491176,-0.055171267601847644,3.1967420313894745,0.47718964221477506,-2.4494755268096924,0.5275018215179443,-4.963963508605957,,,,,,
1764808616.493167,,,,,,,0.7097200155258179,0.19926762580871582,0.06015130877494812,-0.25767946243286133,-3.018531084060669,4.4737982749938965
1764808616.501229,0.8608335702478885,3.238019798195362,0.08500789519995451,-2.529970169067383,0.42589104175567627,-5.047339916229248,,,,,,
1764808616.503197,,,,,,,0.7086851596832275,0.2164900302886963,0.13672086596488953,-0.354317307472229,-3.0864486694335938,4.569838523864746
1764808616.511281,1.7429332158863544,3.668541504998505,-0.277112913941592,-2.5734846591949463,0.33754095435142517,-5.071732997894287,,,,,,
1764808616.513227,,,,,,,0.672107458114624,0.14289981126785278,0.21942874789237976,-0.5037909746170044,-3.0840747356414795,4.5951008796691895
1764808616.521333,2.1082769325971604,4.080126456141471,-0.43783962860107417,-2.588263750076294,0.17022553086280823,-5.040966987609863,,,,,,
1764808616.523257,,,,,,,0.6302530765533447,0.14581596851348877,0.2589573860168457,-0.507331907749176,-3.0775539875030518,4.56725549697876
1764808616.531386,1.8604712155520915,4.28182070261389,-0.7671579460762441,-2.5701777935028076,-0.011259038932621479,-4.986874103546143,,,,,,
1764808616.533287,,,,,,,0.6225419640541077,0.284831702709198,0.3160707354545593,-0.422916054725647,-3.1054186820983887,4.489546775817871
1764808616.541438,1.5854986746400594,4.489240925517678,-1.3943682000190019,-2.5220389366149902,-0.07567615061998367,-4.923305511474609,,,,,,
1764808616.543317,,,,,,,0.6251505017280579,0.4424532651901245,0.37781617045402527,-0.25005999207496643,-3.1465096473693848,4.448916435241699
1764808616.55149,1.6427859114825725,4.629316335684061,-2.0174783251665533,-2.4450454711914062,-0.0198842603713274,-4.836153984069824,,,,,,
1764808616.553348,,,,,,,0.6056044101715088,0.455962598323822,0.4267129600048065,-0.1630619913339615,-3.15533185005188,4.388757705688477
1764808616.561543,1.8955694169402122,4.715781151694059,-2.194628351360559,-2.3504726886749268,0.07266994565725327,-4.716215133666992,,,,,,
1764808616.563378,,,,,,,0.5556067228317261,0.38615310192108154,0.49238917231559753,-0.20518796145915985,-3.0049500465393066,4.3383917808532715
1764808616.571595,2.0181629464298485,4.784868131923675,-1.9938538500815628,-2.2808046340942383,0.16303525865077972,-4.590191841125488,,,,,,
1764808616.573408,,,,,,,0.534986674785614,0.3157404661178589,0.48688995838165283,-0.27248042821884155,-2.8774001598358154,4.320354461669922
1764808616.581647,1.7231915735840797,4.606454515534639,-1.5896780061513185,-2.2563207149505615,0.19795963168144226,-4.507226467132568,,,,,,
1764808616.583438,,,,,,,0.5534705519676208,0.3199215531349182,0.41364556550979614,-0.26279786229133606,-2.8102591037750244,4.225415229797363
1764808616.591699,1.2904437151640653,4.187951455566287,-1.039438617555797,-2.2843217849731445,0.1447099894285202,-4.4653143882751465,,,,,,
1764808616.593468,,,,,,,0.57749342918396,0.38751864433288574,0.3315905034542084,-0.16284942626953125,-2.799799919128418,4.112436771392822
1764808616.601752,1.1099848566830157,3.7991882848232983,-0.6523712909452617,-2.358927011489868,0.06219698488712311,-4.427703857421875,,,,,,
1764808616.603498,,,,,,,0.5942736864089966,0.4588043689727783,0.26929330825805664,0.04936866834759712,-2.7900991439819336,4.059107303619385
1764808616.611804,1.1423176850110293,3.7166724987000226,-0.6035637131564319,-2.4563846588134766,0.033050816506147385,-4.385572910308838,,,,,,
1764808616.613528,,,,,,,0.5849838852882385,0.43768310546875,0.24217116832733154,0.17724139988422394,-2.8039944171905518,3.940061330795288
1764808616.621856,1.2751836021900176,4.006010834094882,-1.0381558842688798,-2.510019063949585,0.016651727259159088,-4.342960357666016,,,,,,
1764808616.623558,,,,,,,0.5674444437026978,0.391427218914032,0.309854120016098,0.15884779393672943,-2.765471935272217,3.8243913650512695
1764808616.631909,1.6757523615390062,4.592108594796061,-1.6402292127370834,-2.4766688346862793,-0.03699898347258568,-4.253270149230957,,,,,,
1764808616.633588,,,,,,,0.5561045408248901,0.37166643142700195,0.40384092926979065,0.18344660103321075,-2.669769287109375,3.812652826309204
1764808616.641961,2.1751626033902167,5.075437470418215,-2.000428990688175,-2.406759738922119,-0.11371020972728729,-4.09511661529541,,,,,,
1764808616.643618,,,,,,,0.5410598516464233,0.3685908913612366,0.41605648398399353,0.23087717592716217,-2.6006550788879395,3.7811315059661865
1764808616.652013,2.2418051130771635,5.065772985494137,-1.9052659044377505,-2.3612430095672607,-0.18008416891098022,-3.9449687004089355,,,,,,
1764808616.653648,,,,,,,0.5159928202629089,0.3524858355522156,0.4241175651550293,0.2091204822063446,-2.533627986907959,3.738081693649292
1764808616.662065,1.9263427408665417,4.647284538573026,-1.839558191382885,-2.3291287422180176,-0.228745698928833,-3.856600761413574,,,,,,
1764808616.663678,,,,,,,0.4995144009590149,0.30218327045440674,0.43609490990638733,0.1563037633895874,-2.4255127906799316,3.7027134895324707
1764808616.672118,1.614824722367525,4.265901541209221,-1.688981260946393,-2.3134801387786865,-0.2875933051109314,-3.807077169418335,,,,,,
1764808616.673709,,,,,,,0.5056062340736389,0.295995831489563,0.4306478202342987,0.14105583727359772,-2.378159284591675,3.635070323944092
1764808616.68217,1.4807722257524727,4.21245227509439,-1.496484174147248,-2.3142547607421875,-0.342443585395813,-3.7618460655212402,,,,,,
1764808616.683739,,,,,,,0.5222200155258179,0.3445172905921936,0.4150114059448242,0.1632930040359497,-2.3445634841918945,3.591156244277954
1764808616.692222,1.5056886403441427,4.4675838049829,-1.6439713218748568,-2.2983648777008057,-0.34717467427253723,-3.6819450855255127,,,,,,
1764808616.693769,,,,,,,0.5336323976516724,0.36347657442092896,0.4080280363559723,0.1472109705209732,-2.293212413787842,3.556342840194702
1764808616.702275,1.5475784015685319,4.701543952026963,-1.7819921375989913,-2.273322343826294,-0.328685998916626,-3.562553644180298,,,,,,
1764808616.703799,,,,,,,0.5292156934738159,0.33021700382232666,0.4030260145664215,0.08488298207521439,-2.260484457015991,3.488313913345337
1764808616.712327,1.4377297873616217,4.665175000050664,-1.7115239321440456,-2.2549092769622803,-0.3439546823501587,-3.445756435394287,,,,,,
1764808616.713829,,,,,,,0.5205830931663513,0.29077887535095215,0.40449821949005127,-0.021678879857063293,-2.2468836307525635,3.4470443725585938
1764808616.722379,1.1646312236279248,4.476283828788995,-1.806782295462489,-2.236902952194214,-0.3751877546310425,-3.3847692012786865,,,,,,
1764808616.723859,,,,,,,0.5133618116378784,0.25934839248657227,0.41654086112976074,-0.13608190417289734,-2.2280287742614746,3.4200327396392822
1764808616.732431,0.8927198238521814,4.350547325098514,-2.0546219147771594,-2.2072348594665527,-0.4013964831829071,-3.397160053253174,,,,,,
1764808616.733889,,,,,,,0.5058600306510925,0.21873313188552856,0.4240759313106537,-0.2926214337348938,-2.2022626399993896,3.377659559249878
1764808616.742484,0.8340753271818161,4.423800777357816,-2.224133847308159,-2.1660547256469727,-0.4393278658390045,-3.4498980045318604,,,,,,
1764808616.743919,,,,,,,0.505759060382843,0.18966472148895264,0.4498334228992462,-0.5597307682037354,-2.1779916286468506,3.360868215560913
1764808616.752536,1.055134491598606,4.688296932440996,-2.4191969852030275,-2.091615915298462,-0.4731859862804413,-3.4924426078796387,,,,,,
1764808616.753949,,,,,,,0.5207852125167847,0.16728967428207397,0.4867660701274872,-0.8459795713424683,-2.171163320541382,3.337477684020996
1764808616.762588,1.490999605256319,5.04672517067492,-2.489025723710656,-2.0001792907714844,-0.5417236685752869,-3.4725887775421143,,,,,,
1764808616.763979,,,,,,,0.532778263092041,0.16171711683273315,0.533448338508606,-1.1640840768814087,-2.156357765197754,3.334105968475342
1764808616.772641,1.96773039778769,5.359910830125212,-2.4560171880781647,-1.9101283550262451,-0.6518680453300476,-3.392277717590332,,,,,,
1764808616.774009,,,,,,,0.5379893183708191,0.21246743202209473,0.5563292503356934,-1.2954537868499756,-2.151912212371826,3.3395676612854004
1764808616.782693,2.277121925652027,5.409392946174741,-2.3831354917407035,-1.8505431413650513,-0.7844923138618469,-3.299875259399414,,,,,,
1764808616.784039,,,,,,,0.5318211913108826,0.27706289291381836,0.5187608003616333,-1.313043236732483,-2.117363452911377,3.316744327545166
1764808616.792745,2.330867544364929,5.198697354862094,-2.1141794346392153,-1.838371992111206,-0.9142511487007141,-3.239361047744751,,,,,,
1764808616.79407,,,,,,,0.530860185623169,0.34062594175338745,0.4684220552444458,-1.3297524452209473,-2.08612322807312,3.299147367477417
1764808616.802798,2.308668279777467,4.854533204302191,-1.8197510826289653,-1.8535311222076416,-1.0619158744812012,-3.1901087760925293,,,,,,
1764808616.8041,,,,,,,0.5479741096496582,0.35767674446105957,0.4241519570350647,-1.2373285293579102,-2.150918960571289,3.2880287170410156
