timestamp,phone_accel_x,phone_accel_y,phone_accel_z,phone_gyro_x,phone_gyro_y,phone_gyro_z,watch_accel_x,watch_accel_y,watch_accel_z,watch_gyro_x,watch_gyro_y,watch_gyro_z
1764808557.09038,-0.5964318154498934,1.7650158683568238,0.3676806352257728,1.0072349309921265,0.020940974354743958,1.64004385471344,,,,,,
1764808557.095002,,,,,,,0.21051174402236938,0.10065704584121704,0.0824739933013916,-0.03888864070177078,0.5768923759460449,-1.7811039686203003
1764808557.100432,0.07399725636392832,2.213897699975967,0.24622283176779747,0.9242928624153137,0.026334408670663834,1.6518021821975708,,,,,,
1764808557.105032,,,,,,,0.3164260983467102,0.14420193433761597,-0.023395657539367676,0.31977230310440063,0.4490443766117096,-1.7606271505355835
1764808557.110484,0.41927477499321103,2.120179551836848,-0.03890811506509781,0.8638115525245667,-0.022565137594938278,1.7404593229293823,,,,,,
1764808557.115062,,,,,,,0.3869134187698364,0.1281462013721466,-0.09501660615205765,0.6658008694648743,0.2516210377216339,-1.7218706607818604
1764808557.120536,0.3290618584960699,1.6066981145352124,-0.19290278152320534,0.7962580919265747,-0.04916505888104439,1.8463971614837646,,,,,,
1764808557.125093,,,,,,,0.38553160429000854,0.026983976364135742,-0.08257985860109329,0.938811719417572,0.04227527603507042,-1.6176910400390625
1764808557.130588,-0.08207710244506597,0.9314835620105266,-0.3088275007734075,0.7122572660446167,0.020599812269210815,1.9031697511672974,,,,,,
1764808557.135123,,,,,,,0.3166676163673401,-0.11052945256233215,-0.027939558029174805,1.0700032711029053,-0.09733455628156662,-1.5372918844223022
1764808557.14064,-0.6053869830608367,0.2953787846028805,-0.3261211288690567,0.6237396597862244,0.16661721467971802,1.8582797050476074,,,,,,
1764808557.145153,,,,,,,0.20897644758224487,-0.21111232042312622,0.022785313427448273,1.106675624847412,-0.10249842703342438,-1.4656143188476562
1764808557.150693,-1.076527992761135,-0.15382453405559063,-0.2756604866435751,0.5304014682769775,0.2987193465232849,1.7114490270614624,,,,,,
1764808557.155183,,,,,,,0.10179191827774048,-0.25219017267227173,0.05343199521303177,1.091825246810913,-0.00994824804365635,-1.436855673789978
1764808557.160745,-1.2388733946636319,-0.0964390975356102,-0.20194765497790648,0.42969751358032227,0.3632908761501312,1.508183240890503,,,,,,
1764808557.165213,,,,,,,0.03789478540420532,-0.21837815642356873,0.061527617275714874,1.001276969909668,0.14284662902355194,-1.437243103981018
1764808557.170797,-1.0568874727457762,0.5116267493456602,-0.02508183428645134,0.3394986093044281,0.33558517694473267,1.3261359930038452,,,,,,
1764808557.175243,,,,,,,0.048940420150756836,-0.14887163043022156,0.061577677726745605,0.8430119156837463,0.27653253078460693,-1.4527924060821533
1764808557.180849,-0.5888888527244329,1.4277221880882978,-0.020241993039846418,0.29453781247138977,0.24330079555511475,1.23015296459198,,,,,,
1764808557.185273,,,,,,,0.12762045860290527,-0.09648799896240234,0.07219719886779785,0.676368236541748,0.28624293208122253,-1.4194190502166748
1764808557.190901,-0.22512042250633238,1.9487977337807416,-0.34151626639962196,0.34154102206230164,0.14391115307807922,1.2352540493011475,,,,,,
1764808557.195303,,,,,,,0.2238175868988037,-0.09030219912528992,0.09319090098142624,0.5561997294425964,0.14754897356033325,-1.337877631187439
1764808557.200953,-0.16609306399822235,1.949837598222494,-0.5664975726962089,0.44925495982170105,0.08029250055551529,1.315237045288086,,,,,,
1764808557.205333,,,,,,,0.26100218296051025,-0.1251048445701599,0.1208876371383667,0.44461533427238464,0.00635269470512867,-1.2772246599197388
1764808557.211005,-0.44124037695527074,1.6972183434158563,-0.4242974254608154,0.5249329209327698,0.05412641167640686,1.3913805484771729,,,,,,
1764808557.215364,,,,,,,0.22401708364486694,-0.17199301719665527,0.14169025421142578,0.3134687542915344,0.004318305291235447,-1.2417856454849243
1764808557.221057,-0.9221718360468745,1.3554688527822494,-0.18593290597796439,0.5432599782943726,0.04041193425655365,1.38554048538208,,,,,,
1764808557.225394,,,,,,,0.1629360318183899,-0.1959584355354309,0.15374720096588135,0.20861929655075073,0.09571772813796997,-1.2211079597473145
1764808557.23111,-1.315769002817571,1.0405869108080863,-0.07440846751332282,0.5390989184379578,0.020123448222875595,1.2981756925582886,,,,,,
1764808557.235424,,,,,,,0.12451457977294922,-0.1872006058692932,0.13805389404296875,0.1950635313987732,0.18570435047149658,-1.2095578908920288
1764808557.241162,-1.4693717108160256,1.0602589950054884,0.05776303766071796,0.522487461566925,-0.009656284004449844,1.179101586341858,,,,,,
1764808557.245454,,,,,,,0.12596774101257324,-0.16141915321350098,0.1010146215558052,0.2514016032218933,0.25897350907325745,-1.1998745203018188
1764808557.251214,-1.4828499088093638,1.3797265112042427,0.2110989114165306,0.4896441698074341,-0.04429449886083603,1.091617465019226,,,,,,
1764808557.255484,,,,,,,0.1652688980102539,-0.13264137506484985,0.07324659824371338,0.31125134229660034,0.28138798475265503,-1.1700698137283325
1764808557.261266,-1.5203712456911802,1.61175656696856,0.14260464551621116,0.4706451892852783,-0.07111039757728577,1.0575095415115356,,,,,,
1764808557.265515,,,,,,,0.21611666679382324,-0.13845294713974,0.059356577694416046,0.3533341884613037,0.20814546942710876,-1.1353025436401367
1764808557.271318,-1.6648893144801258,1.5419915413469076,0.007646149105299264,0.4724161624908447,-0.06512413918972015,1.052965760231018,,,,,,
1764808557.275544,,,,,,,0.24170970916748047,-0.18057942390441895,0.05679154396057129,0.362285315990448,0.12682797014713287,-1.0926672220230103
1764808557.28137,-1.8559391250804065,1.3177303660184143,-0.03347321226848289,0.4628221392631531,-0.017081517726182938,1.0410358905792236,,,,,,
1764808557.285574,,,,,,,0.2233281135559082,-0.21794992685317993,0.07615555077791214,0.34709984064102173,0.12642024457454681,-1.040281057357788
1764808557.291422,-2.0284297811612486,1.1527326960414648,-0.04858602572632953,0.44425415992736816,0.05362430959939957,0.9961833357810974,,,,,,
1764808557.295604,,,,,,,0.1816759705543518,-0.2225697636604309,0.1019892692565918,0.34637200832366943,0.17765706777572632,-0.9766262173652649
1764808557.301474,-2.128414296218753,1.0909990011841058,-0.10588730936050414,0.43407902121543884,0.12726551294326782,0.9205724596977234,,,,,,
1764808557.305634,,,,,,,0.1499629020690918,-0.2177918553352356,0.11140727251768112,0.37018638849258423,0.218719020485878,-0.9128117561340332
1764808557.311527,-2.1331094682976603,1.1347130552262068,-0.16184596448037772,0.43772274255752563,0.19267694652080536,0.8392979502677917,,,,,,
1764808557.315664,,,,,,,0.14265143871307373,-0.22812014818191528,0.10675048828125,0.4004902243614197,0.23822614550590515,-0.8459360599517822
1764808557.321579,-2.07654353146702,1.1723609410971403,-0.10993632902298121,0.45054611563682556,0.2503860592842102,0.7666269540786743,,,,,,
1764808557.325694,,,,,,,0.14935582876205444,-0.24891722202301025,0.10461616516113281,0.4242785573005676,0.2634398937225342,-0.7787285447120667
1764808557.331631,-1.9903844204053283,1.2027420508354902,0.07995499572455883,0.46076661348342896,0.28326570987701416,0.7063136100769043,,,,,,
1764808557.335725,,,,,,,0.15486383438110352,-0.2645350694656372,0.11105705052614212,0.41285601258277893,0.29084596037864685,-0.7112017273902893
1764808557.341683,-1.9538260833367704,1.2294079394429922,0.2386398292928934,0.47821298241615295,0.29566407203674316,0.6536986231803894,,,,,,
1764808557.345755,,,,,,,0.1585792899131775,-0.2612394094467163,0.11031592637300491,0.38122615218162537,0.30869898200035095,-0.6593566536903381
1764808557.351735,-1.9814111326158046,1.2063503044605255,0.3020247984886169,0.5024220943450928,0.2861967384815216,0.6073452234268188,,,,,,
1764808557.355785,,,,,,,0.16001302003860474,-0.2600053548812866,0.1025082916021347,0.35865214467048645,0.32170507311820984,-0.6092530488967896
1764808557.361787,-2.0487918934494256,1.1079407836347819,0.39869014252815393,0.532664954662323,0.2574513852596283,0.5641021132469177,,,,,,
1764808557.365815,,,,,,,0.15362083911895752,-0.26121068000793457,0.08961820602416992,0.3444828391075134,0.34975719451904297,-0.5616901516914368
1764808557.371839,-2.1235317848742006,0.9631173021584749,0.4764279371272772,0.5465413331985474,0.22674062848091125,0.5141820907592773,,,,,,
1764808557.375845,,,,,,,0.14068490266799927,-0.2620914578437805,0.08071697503328323,0.32247394323349,0.3830256760120392,-0.5255898833274841
1764808557.381891,-2.1838000833541154,0.8342255493074655,0.5090162745863199,0.5428112745285034,0.20442068576812744,0.4601132571697235,,,,,,
1764808557.385875,,,,,,,0.13173675537109375,-0.2620316743850708,0.07245159149169922,0.310075968503952,0.4183410406112671,-0.49110257625579834
1764808557.391944,-2.2387375422000884,0.7928338007330894,0.46251229756474493,0.5317882299423218,0.20430703461170197,0.3950956463813782,,,,,,
1764808557.395905,,,,,,,0.1310754418373108,-0.2679533362388611,0.06378185003995895,0.3088754117488861,0.443597674369812,-0.43651577830314636
1764808557.401996,-2.2588006715416906,0.8444400693297386,0.3645405105691403,0.5242392420768738,0.2460225224494934,0.3301376700401306,,,,,,
1764808557.405935,,,,,,,0.13631004095077515,-0.28341054916381836,0.06246411055326462,0.3280114531517029,0.4629700481891632,-0.3731681704521179
1764808557.412048,-2.290667635923624,0.9301713103681802,0.32164836736917496,0.521894097328186,0.3213003873825073,0.26306989789009094,,,,,,
1764808557.415966,,,,,,,0.13846325874328613,-0.2916100025177002,0.0668943002820015,0.33527684211730957,0.48445749282836914,-0.31652700901031494
1764808557.4221,-2.311333407333493,0.9928665437340736,0.3042578182376921,0.5213912725448608,0.41147902607917786,0.1935667097568512,,,,,,
1764808557.425996,,,,,,,0.1386171579360962,-0.2760028839111328,0.0706571415066719,0.3566344380378723,0.5149285793304443,-0.2305251955986023
1764808557.432152,-2.3035218567997218,1.0361726014971733,0.23841946454048155,0.5145612955093384,0.5230265855789185,0.10686402767896652,,,,,,
1764808557.436026,,,,,,,0.14254748821258545,-0.25968414545059204,0.07217073440551758,0.4301246404647827,0.534602165222168,-0.10012564808130264
1764808557.442204,-2.193707729384303,0.9649830960303545,0.12131569157354533,0.506905734539032,0.7208709120750427,0.006232221610844135,,,,,,
1764808557.446056,,,,,,,0.14869874715805054,-0.24953901767730713,0.06378770619630814,0.5482455492019653,0.5365095138549805,0.024930274114012718
1764808557.452256,-1.9988287158846854,0.7592834133088588,0.15568682079613208,0.5038533806800842,0.9289932250976562,-0.09330694377422333,,,,,,
1764808557.456086,,,,,,,0.13820195198059082,-0.23204553127288818,0.04536353796720505,0.6894777417182922,0.5595983266830444,0.12727315723896027
1764808557.462309,-1.7777543538987635,0.5836433532863855,0.42217151934802527,0.48306286334991455,1.1107640266418457,-0.1635478138923645,,,,,,
1764808557.466116,,,,,,,0.12003231048583984,-0.20186805725097656,0.024597525596618652,0.8476071357727051,0.5963131785392761,0.23954376578330994
1764808557.472361,-1.635134519946575,0.46686698564290996,0.6202676682632416,0.45681723952293396,1.2212448120117188,-0.19923458993434906,,,,,,
1764808557.476146,,,,,,,0.1060449481010437,-0.17806386947631836,-0.0003509446978569031,1.0115270614624023,0.6117296814918518,0.33948102593421936
1764808557.482413,-1.5488345391094684,0.3641045303046703,0.6898579949051141,0.43731120228767395,1.2737849950790405,-0.2168804258108139,,,,,,
1764808557.486176,,,,,,,0.09290909767150879,-0.16895830631256104,-0.01883518695831299,1.165461778640747,0.6181966662406921,0.40032339096069336
1764808557.492465,-1.4891741433948278,0.21782383575737474,0.7895067021369934,0.41532060503959656,1.298122525215149,-0.2247873693704605,,,,,,
1764808557.496206,,,,,,,0.07894551753997803,-0.16818714141845703,-0.02293335646390915,1.2540638446807861,0.622320830821991,0.43319958448410034
1764808557.502517,-1.4203946216791867,0.1586743121743202,0.89644081713669,0.3859429955482483,1.2972878217697144,-0.24008110165596008,,,,,,
1764808557.506236,,,,,,,0.06822329759597778,-0.17679190635681152,-0.02219247817993164,1.2824674844741821,0.6281214356422424,0.45850813388824463
1764808557.512569,-1.22239952198565,0.1843546968758106,0.8576128546357155,0.3638867139816284,1.276829481124878,-0.2664240002632141,,,,,,
1764808557.516266,,,,,,,0.0608675479888916,-0.19370967149734497,-0.020740024745464325,1.2744306325912476,0.6355093121528625,0.4783311188220978
1764808557.522621,-0.9138450294673442,0.17881226031780242,0.7456979555487633,0.36030957102775574,1.2394105195999146,-0.2948322296142578,,,,,,
1764808557.526296,,,,,,,0.05479538440704346,-0.19467324018478394,-0.02289295569062233,1.2365669012069702,0.6415339112281799,0.4895938038825989
1764808557.532673,-0.6047656362920999,0.036329789009690285,0.8032756997704505,0.35627251863479614,1.1912789344787598,-0.31552958488464355,,,,,,
1764808557.536327,,,,,,,0.04741853475570679,-0.17293822765350342,-0.029452554881572723,1.184770107269287,0.6364571452140808,0.4911363124847412
1764808557.542726,-0.303787131986022,-0.19305355163812637,0.955500397413969,0.3376580774784088,1.1319764852523804,-0.3040825426578522,,,,,,
1764808557.546357,,,,,,,0.04166966676712036,-0.13693463802337646,-0.04261398687958717,1.0779364109039307,0.621199905872345,0.5052022933959961
1764808557.552778,-0.026378303837776184,-0.3726215987592935,1.038127242696285,0.29685720801353455,1.063498616218567,-0.26501643657684326,,,,,,
1764808557.556387,,,,,,,0.0390130877494812,-0.10623377561569214,-0.06479537487030029,0.967763364315033,0.6029276847839355,0.5130746364593506
1764808557.56283,0.13981997410058974,-0.37267771286070345,1.0933306590020655,0.2445705682039261,0.9824631214141846,-0.20768575370311737,,,,,,
1764808557.566417,,,,,,,0.03583729267120361,-0.08767616748809814,-0.09457027912139893,0.92746901512146,0.573901355266571,0.5040608644485474
1764808557.572882,0.19605857867300508,-0.27608488606810566,1.1352478927552698,0.19937701523303986,0.8671368360519409,-0.15256576240062714,,,,,,
1764808557.576447,,,,,,,0.03133422136306763,-0.06921261548995972,-0.12193083763122559,0.9538835883140564,0.5434739589691162,0.5006887316703796
1764808557.582934,0.16797347091734408,-0.21229075154960153,1.1832014840632676,0.16541293263435364,0.7336704134941101,-0.12060968577861786,,,,,,
1764808557.586477,,,,,,,0.0258636474609375,-0.054625868797302246,-0.13716983795166016,0.9991283416748047,0.5098022818565369,0.5029577612876892
1764808557.592986,0.07465279766321181,-0.21435995903909205,1.1806786875873803,0.1337367594242096,0.599090576171875,-0.12331368029117584,,,,,,
1764808557.596507,,,,,,,0.02327287197113037,-0.058419108390808105,-0.13645052909851074,1.0263605117797852,0.48141244053840637,0.4835861921310425
1764808557.603038,-0.015926467928290368,-0.16059622014760971,1.157178569534421,0.10236099362373352,0.46984389424324036,-0.14469167590141296,,,,,,
1764808557.606537,,,,,,,0.027176976203918457,-0.07004523277282715,-0.12476253509521484,0.9770218729972839,0.44466134905815125,0.4118075370788574
1764808557.61309,-0.0771504596978426,-0.061067339903116226,1.0659475620359182,0.07463685423135757,0.36503008008003235,-0.17270025610923767,,,,,,
1764808557.616567,,,,,,,0.03962540626525879,-0.06577211618423462,-0.10455799102783203,0.830645740032196,0.38250741362571716,0.3555094003677368
1764808557.623143,-0.1104687919318676,0.023211948761343956,0.8774947821915149,0.06619996577501297,0.2962624430656433,-0.19559891521930695,,,,,,
1764808557.626597,,,,,,,0.05359482765197754,-0.05623471736907959,-0.08265602588653564,0.6833029389381409,0.32441696524620056,0.3464832007884979
1764808557.633195,-0.10795359424054622,0.11375789660513401,0.68995911719203,0.07505840063095093,0.25779905915260315,-0.1982525736093521,,,,,,
1764808557.636628,,,,,,,0.055530846118927,-0.05281287431716919,-0.06800472736358643,0.5588566064834595,0.28752976655960083,0.3548569679260254
1764808557.643247,-0.10926175422966479,0.15875146906375884,0.5618973854243755,0.0831347107887268,0.24901753664016724,-0.18811126053333282,,,,,,
1764808557.646658,,,,,,,0.043785929679870605,-0.03964000940322876,-0.055586814880371094,0.4648215174674988,0.2605232000350952,0.3338550925254822
1764808557.653299,-0.10281389326453208,0.1575947002440691,0.5084007730364799,0.0850512832403183,0.24209095537662506,-0.1735624521970749,,,,,,
1764808557.656688,,,,,,,0.033029377460479736,-0.018824458122253418,-0.04806101694703102,0.4255196452140808,0.22782889008522034,0.2976033389568329
1764808557.663351,-0.1491588803321123,0.11748597721755503,0.4688274720609188,0.07754836231470108,0.22859245538711548,-0.16549654304981232,,,,,,
1764808557.666718,,,,,,,0.03237414360046387,-0.008803904056549072,-0.0469588004052639,0.40998023748397827,0.18845805525779724,0.27647703886032104
1764808557.673403,-0.1598684903949499,0.07855155866742133,0.436083140322566,0.06054398790001869,0.2088754028081894,-0.16204920411109924,,,,,,
1764808557.676748,,,,,,,0.03669750690460205,-0.004354119300842285,-0.04320335388183594,0.40201231837272644,0.1438612937927246,0.23534715175628662
1764808557.683455,-0.11711831294894218,0.06714052233695983,0.40720191375315185,0.03223298862576485,0.18366725742816925,-0.16513021290302277,,,,,,
1764808557.686778,,,,,,,0.04347062110900879,-0.006177186965942383,-0.04866957664489746,0.380678653717041,0.08437931537628174,0.1970091611146927
1764808557.693507,-0.023078970031440257,0.0023076924204826353,0.35621290027201175,-0.003949789330363274,0.15783916413784027,-0.16628743708133698,,,,,,
1764808557.696808,,,,,,,0.048003554344177246,-0.024958133697509766,-0.052691102027893066,0.35229575634002686,0.018792850896716118,0.1855650246143341
1764808557.70356,0.04203998335003853,-0.10425415520071983,0.3573012800306082,-0.04069714993238449,0.12296348065137863,-0.16238804161548615,,,,,,
1764808557.706838,,,,,,,0.04405099153518677,-0.045869290828704834,-0.04195380210876465,0.2718042731285095,-0.034897539764642715,0.13838964700698853
1764808557.713612,0.0739087012976408,-0.10308101976811886,0.3568383386939764,-0.07240249961614609,0.07307721674442291,-0.15292313694953918,,,,,,
1764808557.716868,,,,,,,0.030102550983428955,-0.04073113203048706,-0.021841049194335938,0.14476270973682404,-0.05376976355910301,0.08782980591058731
1764808557.723664,0.030635084499418732,-0.02709551219642162,0.2909919295544736,-0.09144490212202072,0.017509032040834427,-0.13312679529190063,,,,,,
1764808557.726898,,,,,,,0.02321028709411621,-0.03167480230331421,-0.007193448022007942,0.05674218013882637,-0.08024531602859497,0.06940086930990219
1764808557.733716,-0.017235796961188314,0.024274609556794165,0.19037877947092055,-0.09040829539299011,-0.03015226125717163,-0.11164623498916626,,,,,,
1764808557.73693,,,,,,,0.019123852252960205,-0.03246337175369263,-0.0030107516795396805,-0.03654355928301811,-0.1120959222316742,0.07094896584749222
1764808557.743768,-0.05731938554644584,0.04829729017913341,0.1319107901449315,-0.0788845345377922,-0.06775742769241333,-0.09012602269649506,,,,,,
1764808557.746959,,,,,,,0.013517916202545166,-0.04087549448013306,0.009652972221374512,-0.1239297091960907,-0.116097591817379,0.06305768340826035
1764808557.75382,-0.08800064727514982,0.060305123358964915,0.10164426496326923,-0.06560031324625015,-0.0989634171128273,-0.070770762860775,,,,,,
1764808557.756989,,,,,,,0.004962563514709473,-0.05516928434371948,0.023824213072657585,-0.18327052891254425,-0.10511364787817001,0.047349561005830765
1764808557.763872,-0.16401859581172465,0.040539515659213064,0.05280979916751385,-0.0546501949429512,-0.11395355314016342,-0.06959310919046402,,,,,,
1764808557.767019,,,,,,,-1.4901161193847656e-05,-0.05842876434326172,0.03349578380584717,-0.21339304745197296,-0.09630683809518814,0.036541324108839035
1764808557.773925,-0.20393881052881477,0.047321723145246505,0.008180950101744383,-0.04217328131198883,-0.1183459609746933,-0.0810621902346611,,,,,,
1764808557.777049,,,,,,,0.003068983554840088,-0.049436330795288086,0.03333425521850586,-0.2152431458234787,-0.09144923835992813,0.04321147873997688
1764808557.783977,-0.20665712957680224,0.010776245558261871,0.030240842751134187,-0.03199734166264534,-0.11562581360340118,-0.09123839437961578,,,,,,
1764808557.787079,,,,,,,0.005814254283905029,-0.039639294147491455,0.03089010715484619,-0.20821112394332886,-0.09044362604618073,0.045026883482933044
1764808557.794029,-0.1949365889057517,-0.04924830729365349,0.07085985338734463,-0.0248885378241539,-0.11370645463466644,-0.0995350107550621,,,,,,
1764808557.797109,,,,,,,0.003770112991333008,-0.03245818614959717,0.02479064278304577,-0.18009692430496216,-0.0782330334186554,0.055800169706344604
1764808557.804081,-0.21642215226590633,-0.10892039344608784,0.06689854854093864,-0.025202792137861252,-0.11077351868152618,-0.10132811218500137,,,,,,
1764808557.807139,,,,,,,-0.0009750723838806152,-0.024974703788757324,0.018107056617736816,-0.11209115386009216,-0.05833442136645317,0.0710713341832161
1764808557.814133,-0.2348012740433216,-0.11784428913593291,0.038511224702000614,-0.0331425666809082,-0.09885994344949722,-0.10012182593345642,,,,,,
1764808557.817169,,,,,,,-0.005134999752044678,-0.016693115234375,0.010723590850830078,-0.02627558447420597,-0.03972345218062401,0.08523615449666977
1764808557.824185,-0.2679363586649299,-0.12419453494548797,0.02065293019460514,-0.0439603254199028,-0.07388455420732498,-0.10227898508310318,,,,,,
1764808557.827199,,,,,,,-0.005395174026489258,-0.014617562294006348,0.0087513979524374,0.038338735699653625,-0.028107013553380966,0.07935569435358047
1764808557.834237,-0.329442089985311,-0.08827917195558548,-0.003088047409523278,-0.05538175255060196,-0.05003593489527702,-0.10618556290864944,,,,,,
1764808557.837229,,,,,,,-0.0032776594161987305,-0.015150606632232666,0.01588773913681507,0.06587182730436325,-0.01951618865132332,0.07659879326820374
1764808557.844289,-0.31236762106567617,-0.03482113801240921,-0.08193886301815509,-0.05688164755702019,-0.026050172746181488,-0.10785190016031265,,,,,,
1764808557.84726,,,,,,,0.0011015534400939941,-0.020584404468536377,0.024663565680384636,0.08105869591236115,-0.019264519214630127,0.09010494500398636
1764808557.854342,-0.2923758033946156,-0.02666471956372261,-0.17449149277554823,-0.052049670368433,0.0005357802147045732,-0.10579871386289597,,,,,,
1764808557.85729,,,,,,,0.0037769079208374023,-0.033536672592163086,0.027169225737452507,0.09015152603387833,-0.024177784100174904,0.10151606053113937
1764808557.864394,-0.2794046781405806,-0.022710428979992866,-0.1753629966467619,-0.04894309118390083,0.03600802272558212,-0.10872525721788406,,,,,,
1764808557.86732,,,,,,,2.1636486053466797e-05,-0.039860546588897705,0.03267776966094971,0.06532786041498184,-0.021476807072758675,0.09544212371110916
1764808557.874446,-0.2608119136124849,-0.06388415088951588,-0.13391571849286554,-0.053369637578725815,0.06867417693138123,-0.12226462364196777,,,,,,
1764808557.87735,,,,,,,-0.0035532712936401367,-0.033267974853515625,0.038579463958740234,0.011755716055631638,-0.009777539409697056,0.09497366845607758
1764808557.884498,-0.19676058946251868,-0.09013912060856819,-0.16673311546742914,-0.05780566483736038,0.08813203126192093,-0.13627684116363525,,,,,,
1764808557.88738,,,,,,,-0.0007144808769226074,-0.02385687828063965,0.03161144256591797,0.00024636712623760104,-0.006046450696885586,0.11301399767398834
1764808557.89455,-0.08689619316458702,-0.07917758161127567,-0.1631400594115257,-0.063230000436306,0.09906254708766937,-0.1429799348115921,,,,,,
1764808557.89741,,,,,,,0.000991523265838623,-0.015520870685577393,0.020487546920776367,0.004550567828118801,-0.011029757559299469,0.13320662081241608
1764808557.904602,0.04483662833124399,-0.04816635727584362,-0.11603168675601482,-0.07137154787778854,0.09982261806726456,-0.14236634969711304,,,,,,
1764808557.90744,,,,,,,0.001313626766204834,-0.006760895252227783,0.018498776480555534,0.01720406487584114,-0.010894202627241611,0.13946224749088287
1764808557.914654,0.09558364975005387,-0.042084991535544396,-0.13898352327644825,-0.07860474288463593,0.08813190460205078,-0.135217547416687,,,,,,
1764808557.91747,,,,,,,-0.0017434954643249512,-0.006041109561920166,0.021916985511779785,0.031604573130607605,-0.010512571781873703,0.14132672548294067
1764808557.924706,0.1158797110646963,0.0035930560559034345,-0.16293372318446636,-0.07934989780187607,0.06488703936338425,-0.1346132755279541,,,,,,
1764808557.9275,,,,,,,0.0009746551513671875,-0.00815647840499878,0.025240302085876465,0.03650801628828049,-0.018331347033381462,0.1497875154018402
1764808557.934759,0.12696341513693332,0.03320376594364643,-0.1781944206804037,-0.07063677906990051,0.03813421353697777,-0.13555237650871277,,,,,,
1764808557.93753,,,,,,,0.001349806785583496,-0.008786201477050781,0.028685329481959343,0.043055396527051926,-0.017584331333637238,0.16112487018108368
1764808557.944811,0.13024433650374412,0.035412089642882345,-0.20238719717264175,-0.06053701043128967,0.014177748933434486,-0.13440722227096558,,,,,,
1764808557.947562,,,,,,,-0.0037241578102111816,-0.007278263568878174,0.030838608741760254,0.053309932351112366,-0.013571479357779026,0.16871653497219086
1764808557.954863,0.08206570426821708,0.02313420735001564,-0.1685650070697069,-0.056030310690402985,0.0011034614872187376,-0.1347656399011612,,,,,,
1764808557.957591,,,,,,,-0.005228579044342041,-0.0044596195220947266,0.02989089861512184,0.05730201303958893,-0.008650490082800388,0.16918471455574036
1764808557.964915,0.02838262939751148,0.0002449146717786789,-0.15389233859479426,-0.05167790502309799,-0.0015471826773136854,-0.13590148091316223,,,,,,
1764808557.967621,,,,,,,-0.0054329633712768555,7.897615432739258e-05,0.025546904653310776,0.053757816553115845,-0.0017718111630529165,0.17030803859233856
1764808557.974967,-0.03822860836833715,-0.03014905454814434,-0.13388883048593997,-0.048225853592157364,0.0010175572242587805,-0.13646303117275238,,,,,,
1764808557.977651,,,,,,,-0.0028307437896728516,-5.066394805908203e-05,0.019072169438004494,0.06293187290430069,0.001153937540948391,0.168070986866951
1764808557.985019,-0.032930794221162796,-0.016561843222379684,-0.09626197826988063,-0.04683301970362663,0.003964078612625599,-0.12965546548366547,,,,,,
1764808557.987681,,,,,,,-0.002956092357635498,0.0005933046340942383,0.015225766226649284,0.05182211846113205,0.002903101732954383,0.15465231239795685
1764808557.995071,-0.03038695495724678,-0.023186229798197743,-0.07388940750870387,-0.05150073394179344,0.012626968324184418,-0.12478383630514145,,,,,,
1764808557.997711,,,,,,,-0.002979755401611328,0.009087443351745605,0.013315919786691666,0.025009945034980774,0.012268373742699623,0.14346010982990265
1764808558.005123,0.003458323760330677,-0.03518061897456646,-0.09783435128629207,-0.0555436797440052,0.02021671086549759,-0.11680714040994644,,,,,,
1764808558.007742,,,,,,,0.000706017017364502,0.012932419776916504,0.010557178407907486,0.023538924753665924,0.015263631008565426,0.13793624937534332
1764808558.015176,0.043670507161319254,-0.005881459254026412,-0.09847381823360919,-0.057050175964832306,0.029454907402396202,-0.1049492210149765,,,,,,
1764808558.017772,,,,,,,0.004031658172607422,0.01124119758605957,0.0038856305181980133,0.02315836027264595,0.00526825524866581,0.12566067278385162
1764808558.025226,0.0608633417636156,0.03698912970125675,-0.06188859315812587,-0.05399446561932564,0.02300846017897129,-0.0958675742149353,,,,,,
1764808558.027802,,,,,,,0.001698613166809082,0.010856330394744873,0.008551953360438347,0.010039279237389565,0.014524337835609913,0.11482973396778107
1764808558.035278,0.05106090967357158,0.0594213262617588,-0.10050327823460102,-0.04707983136177063,0.01927225850522518,-0.08845750242471695,,,,,,
1764808558.037832,,,,,,,-0.0003428459167480469,0.012489914894104004,0.018512487411499023,-0.002381969941779971,0.017931053414940834,0.10329904407262802
1764808558.04533,0.08758271412402391,0.08093406988978386,-0.1419002875059843,-0.031159717589616776,0.013345392420887947,-0.08704842627048492,,,,,,
1764808558.047863,,,,,,,-0.0019757747650146484,0.01143801212310791,0.01766299642622471,0.012656542472541332,0.0262004341930151,0.09722577035427094
1764808558.055382,0.12381488797813653,0.07433832488656043,-0.13280921855568886,-0.019438311457633972,0.0051048919558525085,-0.0795956403017044,,,,,,
1764808558.057893,,,,,,,-0.003300189971923828,0.004976511001586914,0.01296829804778099,0.035096339881420135,0.03270121291279793,0.09082033485174179
1764808558.065434,0.11533113727122545,0.03909750015735626,-0.06082476331889629,-0.016512561589479446,-0.006823939271271229,-0.06708650290966034,,,,,,
1764808558.067923,,,,,,,-0.0022040605545043945,0.005075275897979736,0.010118722915649414,0.03164692968130112,0.027935484424233437,0.06268098205327988
1764808558.075486,0.09688158060610294,0.013809329643845557,-0.00717909784913063,-0.018052758648991585,-0.02444482035934925,-0.054217174649238586,,,,,,
1764808558.077953,,,,,,,0.0023803114891052246,0.006684541702270508,0.008253095671534538,0.04614384472370148,0.03482668101787567,0.04829937964677811
1764808558.085538,0.07696516625881195,0.03117372142076492,-0.03524374505536398,-0.016124628484249115,-0.04062671959400177,-0.043510470539331436,,,,,,
1764808558.087983,,,,,,,0.004174590110778809,0.014570534229278564,0.00438212975859642,0.05428425595164299,0.03226951137185097,0.04660367965698242
1764808558.095591,0.01157499472051859,0.04922083476483822,-0.07049217085242271,-0.015779070556163788,-0.040274668484926224,-0.0403323695063591,,,,,,
1764808558.098013,,,,,,,0.007400572299957275,0.02002817392349243,0.002551201730966568,0.06724746525287628,0.02368481270968914,0.04187630116939545
1764808558.105643,-0.012787585380673408,0.05199614469707012,-0.059090486872196195,-0.015273069962859154,-0.03337867930531502,-0.035080086439847946,,,,,,
1764808558.108043,,,,,,,0.007151126861572266,0.011053919792175293,0.0007255058735609055,0.06713166832923889,0.02080034278333187,0.028211288154125214
1764808558.115695,0.008574059338867663,0.038057635715603826,-0.024745151961280496,-0.009657513350248337,-0.03134871646761894,-0.024841565638780594,,,,,,
1764808558.118073,,,,,,,0.005526721477508545,-0.0017603635787963867,5.555152893066406e-05,0.05679088085889816,0.015765104442834854,0.013101843185722828
1764808558.125747,0.003273322582244873,-0.0015898995399475098,0.006429740786552429,-0.005779684986919165,-0.03543586656451225,-0.014793992973864079,,,,,,
1764808558.128103,,,,,,,0.004678308963775635,-0.005254924297332764,0.0018204450607299805,0.0333319827914238,0.012015639804303646,-0.001957333879545331
1764808558.135799,-0.012522796964645385,-0.029393267744779586,0.03901449804902077,-0.000397232361137867,-0.04354877397418022,-0.009770307689905167,,,,,,
1764808558.138133,,,,,,,0.0037401914596557617,-0.0002523660659790039,-0.0005432404577732086,0.01120351254940033,0.011400450021028519,-0.012754322029650211
1764808558.145851,0.0005769231051206588,-0.036247371423244475,0.06504676492810249,0.004890740383416414,-0.05639506131410599,-0.006569454446434975,,,,,,
1764808558.148164,,,,,,,0.002577662467956543,0.00045669078826904297,-0.00641501322388649,0.004803825169801712,0.012076892890036106,-0.008223818615078926
1764808558.155903,0.024519816489517687,-0.028010288953781125,0.08772212259471417,0.003234159667044878,-0.07002434134483337,-0.00010511744767427444,,,,,,
1764808558.158194,,,,,,,0.001247107982635498,-0.00808107852935791,-0.010314110666513443,-0.006984390318393707,0.0070776063948869705,-0.01501993928104639
1764808558.165955,-0.035976445527374744,-0.013088029631972312,0.10390753372013568,-0.0015539377927780151,-0.07525984942913055,-0.00316189369186759,,,,,,
1764808558.168224,,,,,,,0.002835512161254883,-0.018076539039611816,-0.007188562303781509,-0.04732165485620499,0.006579861976206303,-0.0402376763522625
1764808558.176008,-0.0677931410267949,0.018311901760101317,0.07480243526697158,-0.0031163240782916546,-0.08029048889875412,-0.0128996092826128,,,,,,
1764808558.178254,,,,,,,0.008061468601226807,-0.021099388599395752,-0.0045506954193115234,-0.08291373401880264,0.006698905490338802,-0.04081478342413902
1764808558.18606,-0.05960661970078945,0.040248423758149146,0.05166062913239002,-0.00266811391338706,-0.08284872025251389,-0.022974347695708275,,,,,,
1764808558.188284,,,,,,,0.016114413738250732,-0.020419538021087646,-0.0058103762567043304,-0.09024755656719208,0.001130768097937107,-0.018685312941670418
1764808558.196112,0.01501958221644163,0.0924871450394392,0.04731704697012901,-0.0024178815074265003,-0.0900716558098793,-0.017153602093458176,,,,,,
1764808558.198314,,,,,,,0.018917977809906006,-0.023394405841827393,-0.007485866546630859,-0.0852019339799881,-0.00715592410415411,-0.01148066483438015
1764808558.206165,-0.01269727674871683,0.0532996285110712,0.07882394586801529,-0.005286639090627432,-0.09789256006479263,-0.015650246292352676,,,,,,
1764808558.208344,,,,,,,0.015524327754974365,-0.024801135063171387,-0.007433772087097168,-0.1070728674530983,-0.01401116605848074,-0.025927448645234108
1764808558.216216,-0.0597197246864438,-0.00040624271333217617,0.10268529844880103,-0.007349294610321522,-0.11119250953197479,-0.030168408527970314,,,,,,
1764808558.218374,,,,,,,0.01455754041671753,-0.026687145233154297,-0.005871418863534927,-0.13181710243225098,-0.01389398705214262,-0.018041295930743217
1764808558.226269,-0.07282002927809954,-0.012798106774687767,0.1143774989413563,-0.005660850554704666,-0.13152389228343964,-0.04205862060189247,,,,,,
1764808558.228404,,,,,,,0.014424562454223633,-0.03148525953292847,-0.006560925394296646,-0.14849242568016052,-0.017094841226935387,0.0007241364801302552
1764808558.23632,-0.051290042254328726,-0.006668810239434242,0.10919336516857146,-0.005965782329440117,-0.14726635813713074,-0.04741876572370529,,,,,,
1764808558.238434,,,,,,,0.011052429676055908,-0.029270708560943604,-0.004951950162649155,-0.16151447594165802,-0.017407497391104698,0.003518857527524233
1764808558.246372,-0.07930646868795156,-0.03322071707844734,0.11539748050570488,-0.005172502715140581,-0.15471570193767548,-0.05654977634549141,,,,,,
1764808558.248465,,,,,,,0.005534648895263672,-0.02632993459701538,-0.006479259580373764,-0.15362471342086792,-0.007756732404232025,0.010712787508964539
1764808558.256425,-0.12852262727767227,-0.00779869105219841,0.09045476242899894,-0.005793542601168156,-0.15127447247505188,-0.06626614183187485,,,,,,
1764808558.258495,,,,,,,0.003341078758239746,-0.032910287380218506,-0.01181625947356224,-0.12758086621761322,-0.0008431668393313885,0.029760781675577164
1764808558.266477,-0.1448652747914195,0.02587386144697666,0.06699204464382491,-0.008344318717718124,-0.14231479167938232,-0.0778903067111969,,,,,,
1764808558.268525,,,,,,,0.007783353328704834,-0.037109375,-0.008907552808523178,-0.1232135072350502,3.114878199994564e-05,0.03602366894483566
1764808558.276529,-0.22106296380907295,0.012023030748963355,0.07340425890684127,-0.006219534669071436,-0.11967040598392487,-0.09224525094032288,,,,,,
1764808558.278555,,,,,,,0.009151816368103027,-0.030707836151123047,-0.0013369321823120117,-0.11839958280324936,0.0003901430172845721,0.04628296568989754
1764808558.286581,-0.19435557414740323,-0.01310907242000103,0.04853636876516975,-0.0007435427978634834,-0.09777975082397461,-0.10621432960033417,,,,,,
1764808558.288585,,,,,,,0.009910941123962402,-0.023542702198028564,0.0009822845458984375,-0.09411849826574326,0.004853600636124611,0.07353170216083527
1764808558.296633,-0.1738131368562579,-0.023256956946849823,0.03995734099023975,0.006541367620229721,-0.07353010028600693,-0.10716316848993301,,,,,,
1764808558.298615,,,,,,,0.0058356523513793945,-0.01612192392349243,0.0007913075387477875,-0.0625603049993515,0.010025459341704845,0.08973224461078644
1764808558.306685,-0.1751058070152998,0.011485270610451698,0.09906185638778843,0.005128027871251106,-0.050902027636766434,-0.10747981816530228,,,,,,
1764808558.308645,,,,,,,0.000687718391418457,-0.010913550853729248,-0.0007400549948215485,-0.03876654803752899,0.02916506491601467,0.08779705315828323
1764808558.316737,-0.261869313710928,0.04938157828450203,0.18060966512858867,-0.0008071246556937695,-0.0354718379676342,-0.1211044117808342,,,,,,
1764808558.318675,,,,,,,0.001271963119506836,-0.0057506561279296875,-0.003601551055908203,-0.028544533997774124,0.04364387318491936,0.09122055023908615
1764808558.326789,-0.23895868598371742,0.12058335871100424,0.1908300303697586,0.001059484900906682,-0.035790085792541504,-0.12835432589054108,,,,,,
1764808558.328705,,,,,,,0.012180626392364502,-0.007703542709350586,-0.006285432726144791,-0.02449040301144123,0.037623800337314606,0.09936689585447311
1764808558.336842,-0.17535744368880987,0.14348492634892462,0.11554770263135433,0.015694133937358856,-0.03737519308924675,-0.12241324037313461,,,,,,
1764808558.338735,,,,,,,0.022409796714782715,-0.015323400497436523,-0.005108479410409927,-0.0069478964433074,0.025926128029823303,0.09865689277648926
1764808558.346894,-0.18040420568436383,0.1204594400703907,0.05575169783830643,0.030205167829990387,-0.014792651869356632,-0.11114966869354248,,,,,,
1764808558.348765,,,,,,,0.017849743366241455,-0.021200239658355713,-0.0019447803497314453,0.001222957973368466,0.025052079930901527,0.09376712888479233
1764808558.356946,-0.25593115583360193,0.05621580821871757,0.016081959884101524,0.04018183797597885,0.039142634719610214,-0.11693522334098816,,,,,,
1764808558.358796,,,,,,,0.007558584213256836,-0.022597312927246094,0.0061662159860134125,-0.024554576724767685,0.03939773142337799,0.09798531234264374
1764808558.366998,-0.2848100443154573,-0.013773673808574676,0.0020633714037481695,0.050493597984313965,0.10037217289209366,-0.12981027364730835,,,,,,
1764808558.368826,,,,,,,-0.002193450927734375,-0.02341693639755249,0.00852501392364502,-0.039582252502441406,0.06355472654104233,0.12230110168457031
1764808558.37705,-0.2612356919825077,-0.06277823547422885,0.0043611269521061325,0.059504251927137375,0.1562775820493698,-0.14057792723178864,,,,,,
1764808558.378856,,,,,,,-0.0037689208984375,-0.024541497230529785,0.003186821937561035,-0.0416850820183754,0.07341082394123077,0.1301015019416809
1764808558.387102,-0.2511269704222679,-0.1064730002939701,0.02055296781831421,0.05706719309091568,0.2080473005771637,-0.15250569581985474,,,,,,
1764808558.388886,,,,,,,-0.005669832229614258,-0.010232388973236084,-0.0015286244451999664,-0.023055749014019966,0.07698345184326172,0.12864282727241516
1764808558.397154,-0.1854436611562967,-0.15984452499747276,0.029522456215554847,0.04604218155145645,0.23986072838306427,-0.162567138671875,,,,,,
1764808558.398917,,,,,,,-0.005103588104248047,0.0015114545822143555,-0.007063388824462891,0.05177588015794754,0.07974941283464432,0.1509569138288498
1764808558.407206,-0.06835398977994918,-0.17912147239744663,0.020317980885505675,0.03196178376674652,0.2518228590488434,-0.1724080592393875,,,,,,
1764808558.408946,,,,,,,-0.0063991546630859375,0.003356337547302246,-0.014639616012573242,0.14568479359149933,0.08315905928611755,0.16506095230579376
1764808558.417259,0.09244622850716114,-0.1416653097063303,0.08638357660048641,0.01960412971675396,0.24246561527252197,-0.17106734216213226,,,,,,
1764808558.418976,,,,,,,-0.011043429374694824,0.006480872631072998,-0.017714500427246094,0.2088475078344345,0.08346664905548096,0.14781218767166138
1764808558.427311,0.20254267999529837,-0.09423486548960208,0.14257834203117525,0.012603478506207466,0.2044508457183838,-0.1623779833316803,,,,,,
1764808558.429006,,,,,,,-0.009420037269592285,0.009718537330627441,-0.014294266700744629,0.2231103926897049,0.07976458966732025,0.1327427625656128
1764808558.437363,0.22331366534531116,-0.07999649677872657,0.11004970800327137,0.013779787346720695,0.14882710576057434,-0.14436505734920502,,,,,,
1764808558.439036,,,,,,,-0.0046749114990234375,-0.0006789565086364746,-0.011161569505929947,0.20666110515594482,0.06531614065170288,0.1356266885995865
1764808558.447415,0.14392857846319673,-0.12900164296627045,0.07642856603092514,0.019840342923998833,0.10202444344758987,-0.13086655735969543,,,,,,
1764808558.449066,,,,,,,-2.3603439331054688e-05,-0.018681228160858154,-0.007236361503601074,0.16249747574329376,0.046701185405254364,0.13185685873031616
1764808558.457467,0.08708733182251453,-0.1862760203272104,0.053493109823134724,0.022083371877670288,0.06450910121202469,-0.11312562227249146,,,,,,
1764808558.459097,,,,,,,-0.007771670818328857,-0.029230058193206787,-0.004179481416940689,0.1016240119934082,0.04467185586690903,0.11360088735818863
1764808558.467519,-0.0380938760727644,-0.23220015163421628,0.028312491337326353,0.016663571819663048,0.04845956340432167,-0.10677265375852585,,,,,,
1764808558.469127,,,,,,,-0.01823955774307251,-0.031600892543792725,-0.0003044605255126953,0.042566265910863876,0.05045091360807419,0.10025937855243683
1764808558.477571,-0.12207885796576738,-0.25269816526174543,0.0029500819772481915,0.004785878583788872,0.04875112697482109,-0.11273165047168732,,,,,,
1764808558.479157,,,,,,,-0.02021050453186035,-0.026414096355438232,0.0025817155838012695,-0.019860628992319107,0.04671476408839226,0.10229802876710892
1764808558.487623,-0.15788491536229848,-0.2593260589689016,-0.05146656329843681,-0.01098722591996193,0.061470650136470795,-0.1300611048936844,,,,,,
1764808558.489187,,,,,,,-0.015927255153656006,-0.022149085998535156,-0.001057744026184082,-0.07876210659742355,0.03296433016657829,0.1010994091629982
1764808558.497676,-0.0912383140221238,-0.24352000254988668,-0.0700263069063425,-0.027807489037513733,0.06768306344747543,-0.14022807776927948,,,,,,
1764808558.499217,,,,,,,-0.012513995170593262,-0.01693713665008545,-0.007917162030935287,-0.14488014578819275,0.009168720804154873,0.08629942685365677
1764808558.507728,0.06528028142303229,-0.2445645431667566,-0.10113631544113158,-0.03968412056565285,0.05447591096162796,-0.14018839597702026,,,,,,
1764808558.509247,,,,,,,-0.012298107147216797,-0.011510372161865234,-0.008337613195180893,-0.22856754064559937,-0.02843671292066574,0.08056017756462097
1764808558.51778,0.24502047024071216,-0.2529354811489582,-0.11106325069367885,-0.04343721643090248,0.02444607764482498,-0.13746394217014313,,,,,,
1764808558.519277,,,,,,,-0.010819196701049805,-0.013141274452209473,-0.007912639528512955,-0.26936236023902893,-0.04155490919947624,0.08804712444543839
1764808558.527832,0.30001433544903994,-0.23183248736560344,-0.11358546264767647,-0.05208636447787285,-0.0059661571867764,-0.13651666045188904,,,,,,
1764808558.529307,,,,,,,-0.01720595359802246,-0.020116984844207764,0.0017843283712863922,-0.3074733316898346,-0.03617745265364647,0.09775594621896744
1764808558.537884,0.3916524624437093,-0.20118132851421833,-0.15660627372860908,-0.06207997724413872,-0.03221392259001732,-0.14346098899841309,,,,,,
1764808558.539337,,,,,,,-0.02403092384338379,-0.006118118762969971,0.007413152605295181,-0.3387787640094757,-0.0384717658162117,0.09533033519983292
1764808558.547936,0.4752639348492026,-0.1610924792319536,-0.18003040393590927,-0.06637033820152283,-0.07070724666118622,-0.14250437915325165,,,,,,
1764808558.549368,,,,,,,-0.01892608404159546,0.007509708404541016,0.0023330524563789368,-0.3371489644050598,-0.056010279804468155,0.1020759865641594
1764808558.557988,0.4939981536746025,-0.17084464243948458,-0.1663514226734638,-0.07201569527387619,-0.1146220862865448,-0.13896538317203522,,,,,,
1764808558.559398,,,,,,,-0.01490086317062378,0.014886021614074707,-0.004463903605937958,-0.3587450683116913,-0.07434641569852829,0.10018221288919449
1764808558.56804,0.4968816001564264,-0.23124387382268904,-0.11484218471050262,-0.07856041193008423,-0.15916559100151062,-0.13134928047657013,,,,,,
1764808558.569428,,,,,,,-0.0175592303276062,0.020086944103240967,0.000532984733581543,-0.39796605706214905,-0.08072201907634735,0.08370909839868546
1764808558.578093,0.49570992602854963,-0.22505729414224623,-0.11932429856061935,-0.07803155481815338,-0.20824791491031647,-0.11770150065422058,,,,,,
1764808558.579458,,,,,,,-0.02958160638809204,0.03123652935028076,0.009159684181213379,-0.4386618137359619,-0.07289818674325943,0.0677487775683403
1764808558.588145,0.4689052134722471,-0.1754062512665987,-0.14822890600562094,-0.05666687339544296,-0.2560351490974426,-0.10046391189098358,,,,,,
1764808558.589488,,,,,,,-0.038330793380737305,0.0420188307762146,0.015332348644733429,-0.4867091476917267,-0.05445872247219086,0.044357698410749435
1764808558.598197,0.39680443837940693,-0.10388707545399666,-0.21129647981524466,-0.022764187306165695,-0.29130756855010986,-0.08058924973011017,,,,,,
1764808558.599518,,,,,,,-0.04404950141906738,0.048243939876556396,0.023552656173706055,-0.5528756976127625,-0.03762168809771538,0.0025186408311128616
1764808558.608249,0.31230858435481784,-0.14941899257302282,-0.2226151616871357,0.01951615698635578,-0.29848557710647583,-0.06884710490703583,,,,,,
1764808558.609548,,,,,,,-0.0467228889465332,0.04470944404602051,0.027400963008403778,-0.6418796181678772,-0.016920404508709908,-0.03557315096259117
1764808558.618301,0.27710399998277424,-0.29843817217350005,-0.24536942980885504,0.055121950805187225,-0.26686200499534607,-0.0643259584903717,,,,,,
1764808558.619578,,,,,,,-0.054507553577423096,0.05146068334579468,0.026965737342834473,-0.7264211773872375,0.012923511676490307,-0.05825689435005188
1764808558.628353,0.39187721111029383,-0.3931453313499689,-0.3168915282309055,0.08919310569763184,-0.19631356000900269,-0.05372578278183937,,,,,,
1764808558.629608,,,,,,,-0.06350547075271606,0.07313805818557739,0.024789921939373016,-0.7435328364372253,0.03185006603598595,-0.09207184612751007
1764808558.638405,0.5310331683441997,-0.4472001621425152,-0.3141699943125248,0.11951640993356705,-0.10696763545274734,-0.02338750846683979,,,,,,
1764808558.639638,,,,,,,-0.06912350654602051,0.09732544422149658,0.009835481643676758,-0.6897066235542297,0.04680291563272476,-0.12805461883544922
1764808558.648457,0.6147504392117261,-0.5404910247802734,-0.272992199016083,0.1432020366191864,-0.02601553127169609,0.020273419097065926,,,,,,
1764808558.649668,,,,,,,-0.07765108346939087,0.12727421522140503,-0.005568273365497589,-0.5966545343399048,0.07537650316953659,-0.16856662929058075
1764808558.65851,0.6767725956216454,-0.5387251841515303,-0.24926760629117486,0.14391085505485535,0.043822597712278366,0.06365308910608292,,,,,,
1764808558.659699,,,,,,,-0.08752065896987915,0.16065740585327148,-0.015835285186767578,-0.5046623349189758,0.12342924624681473,-0.21300466358661652
1764808558.668562,0.798002435542643,-0.2967220159053802,-0.3481616957634687,0.1429758220911026,0.10716454684734344,0.09737323224544525,,,,,,
1764808558.669729,,,,,,,-0.0862765908241272,0.18371325731277466,-0.01575564593076706,-0.43287837505340576,0.1402260810136795,-0.2723589837551117
1764808558.678614,0.9865525382816791,-0.01978314335644245,-0.47320203388333315,0.15608558058738708,0.1674254685640335,0.13872097432613373,,,,,,
1764808558.67976,,,,,,,-0.05697566270828247,0.18642663955688477,-0.01255439966917038,-0.4077783524990082,0.12966451048851013,-0.31292611360549927
1764808558.688666,1.2049772625416517,0.197552616623044,-0.574843376237154,0.18576757609844208,0.21462734043598175,0.18789997696876526,,,,,,
1764808558.689789,,,,,,,-0.026731789112091064,0.16894781589508057,0.004694461822509766,-0.44721323251724243,0.12243029475212097,-0.36113080382347107
1764808558.698718,1.3940274237573147,0.3655775254666805,-0.6642699646621942,0.22844699025154114,0.23669350147247314,0.23803995549678802,,,,,,
1764808558.699819,,,,,,,-0.012869060039520264,0.16580551862716675,0.03660701960325241,-0.5489050149917603,0.09680642187595367,-0.4290749728679657
1764808558.70877,1.595426778936386,0.4112964895904064,-0.6166285080432892,0.28275975584983826,0.2093670815229416,0.29152849316596985,,,,,,
1764808558.709849,,,,,,,-0.005459785461425781,0.16904371976852417,0.05057133734226227,-0.6571292281150818,0.07604867964982986,-0.4894351363182068
1764808558.718822,1.7811352285087108,0.3768360015839338,-0.48382571922838685,0.3312404155731201,0.1414848417043686,0.33621543645858765,,,,,,
1764808558.719879,,,,,,,-0.007790803909301758,0.17950594425201416,0.049962520599365234,-0.8137689232826233,0.089412160217762,-0.5683653354644775
1764808558.728874,1.993100401365757,0.21451251925230025,-0.38499066646695135,0.3775692880153656,0.03722741827368736,0.37449437379837036,,,,,,
1764808558.729909,,,,,,,-0.019657015800476074,0.19605618715286255,0.052517279982566833,-0.9846153855323792,0.11797695606946945,-0.6574248671531677
1764808558.738926,2.303518934190273,0.10917232238054275,-0.3433750460088253,0.4158239960670471,-0.09891130030155182,0.42273443937301636,,,,,,
1764808558.739939,,,,,,,-0.03172212839126587,0.2125844955444336,0.04432975500822067,-1.1237006187438965,0.12699255347251892,-0.7564212083816528
1764808558.74898,2.559138832117617,0.1232213059991598,-0.294797769844532,0.4424217939376831,-0.23687928915023804,0.49394071102142334,,,,,,
1764808558.749969,,,,,,,-0.03612738847732544,0.2362772822380066,0.016450032591819763,-1.1956653594970703,0.14073394238948822,-0.8568305373191833
1764808558.759031,2.7780741362482306,0.1181102465957403,-0.38376079587843265,0.4776701331138611,-0.35438114404678345,0.6009383797645569,,,,,,
1764808558.76,,,,,,,-0.03769153356552124,0.2725670337677002,0.0059435367584228516,-1.1977159976959229,0.17312091588974,-0.938230574131012
1764808558.769083,2.8118501491218804,0.10381868639290333,-0.5114747371217235,0.5061161518096924,-0.40658867359161377,0.7207063436508179,,,,,,
1764808558.77003,,,,,,,-0.039274752140045166,0.31207001209259033,0.012869223952293396,-1.1648083925247192,0.21356101334095,-1.0120023488998413
1764808558.779135,2.665608325280249,0.24446400540173052,-0.6514519841432571,0.5424672961235046,-0.39139804244041443,0.833812415599823,,,,,,
1764808558.780061,,,,,,,-0.04826098680496216,0.3421075940132141,0.02684330940246582,-1.1310627460479736,0.25651833415031433,-1.0948024988174438
1764808558.789187,2.476250121028721,0.47083764283955093,-0.8041852158308028,0.5941259860992432,-0.34465691447257996,0.9292166829109192,,,,,,
1764808558.79009,,,,,,,-0.05374687910079956,0.3579564094543457,0.04844868183135986,-1.1283525228500366,0.30519506335258484,-1.1920636892318726
1764808558.799239,2.395872223716974,0.5989648410588503,-0.8882382945239543,0.6567348837852478,-0.27933818101882935,1.0236955881118774,,,,,,
1764808558.80012,,,,,,,-0.042050182819366455,0.37816089391708374,0.06065976619720459,-1.1778484582901,0.3412739634513855,-1.3308589458465576
1764808558.809291,2.394768061867356,0.5808458315223455,-0.877215453793481,0.7313132286071777,-0.2188974767923355,1.129177451133728,,,,,,
1764808558.81015,,,,,,,-0.021896302700042725,0.40683239698410034,0.08003675937652588,-1.2570301294326782,0.37397199869155884,-1.463547945022583
1764808558.819343,2.47654150519073,0.4548796107292175,-0.8986807780832051,0.8149223923683167,-0.17092807590961456,1.2404124736785889,,,,,,
1764808558.82018,,,,,,,-0.013443410396575928,0.4215010404586792,0.09391508996486664,-1.2796952724456787,0.413076788187027,-1.563455581665039
1764808558.829396,2.6425392921209334,0.4167687835216522,-0.8982014701336621,0.8798142671585083,-0.1168275699019432,1.3571619987487793,,,,,,
1764808558.83021,,,,,,,-0.022277235984802246,0.4219847321510315,0.09189903736114502,-1.2344212532043457,0.4775359332561493,-1.656624674797058
1764808558.839448,2.8485020096927878,0.5308195255935192,-0.887509322662279,0.9285390377044678,-0.05610000342130661,1.4609763622283936,,,,,,
1764808558.84024,,,,,,,-0.03596705198287964,0.42982470989227295,0.07923686504364014,-1.2085920572280884,0.5639951825141907,-1.8035500049591064
1764808558.8495,3.1242180624485014,0.8192156117022037,-0.895719590190053,0.9768077731132507,-0.02487284317612648,1.5665662288665771,,,,,,
1764808558.85027,,,,,,,-0.037641704082489014,0.4499797224998474,0.10523486137390137,-1.2255377769470215,0.677163302898407,-1.969594955444336
1764808558.859552,3.4736218672275543,1.1445213325351475,-0.9538280802875757,1.0527101755142212,-0.04469381645321846,1.6945199966430664,,,,,,
1764808558.860301,,,,,,,-0.018990755081176758,0.4789521098136902,0.14723418653011322,-1.2094684839248657,0.823987603187561,-2.071406602859497
1764808558.869604,3.6610488111555575,1.2998387354969978,-1.062642602206394,1.1623698472976685,-0.08397331088781357,1.8465694189071655,,,,,,
1764808558.870331,,,,,,,0.013384580612182617,0.5002420544624329,0.17173123359680176,-1.192986249923706,0.9253920316696167,-2.157186985015869
1764808558.879656,3.616654958155751,1.2759873197883367,-1.000865141272545,1.2671838998794556,-0.11736506968736649,1.992035150527954,,,,,,
1764808558.880361,,,,,,,0.03938800096511841,0.4912620782852173,0.16905418038368225,-1.1525472402572632,0.9951079487800598,-2.267120361328125
1764808558.889708,3.4887516318202016,1.1409522418767213,-0.8038355256102979,1.3398805856704712,-0.14394527673721313,2.119939088821411,,,,,,
1764808558.890391,,,,,,,0.05091577768325806,0.4670928120613098,0.16366681456565857,-1.122758150100708,1.107391595840454,-2.3849306106567383
1764808558.89976,3.373642320606112,1.05152799153924,-0.7516751302622259,1.392386794090271,-0.14230212569236755,2.2378768920898438,,,,,,
1764808558.900421,,,,,,,0.05003666877746582,0.48995232582092285,0.17485174536705017,-1.0509387254714966,1.2501250505447388,-2.467756748199463
1764808558.909813,3.297530556306243,1.1631710879474877,-0.9645137249529361,1.4522900581359863,-0.0525277704000473,2.3713653087615967,,,,,,
1764808558.910451,,,,,,,0.05336403846740723,0.5337578654289246,0.17365622520446777,-0.9199193716049194,1.383493185043335,-2.546475887298584
1764808558.919865,3.210204739552736,1.4280249704271555,-0.9515544362671673,1.513464093208313,0.09531673789024353,2.5336155891418457,,,,,,
1764808558.920481,,,,,,,0.06589025259017944,0.5578662157058716,0.1804208755493164,-0.78098064661026,1.532792091369629,-2.6401004791259766
1764808558.929917,2.9816122570216654,1.5771259830921887,-0.8500012105882168,1.5737433433532715,0.21694675087928772,2.6995902061462402,,,,,,
1764808558.930511,,,,,,,0.08649337291717529,0.5576701164245605,0.19803741574287415,-0.6330222487449646,1.6929967403411865,-2.711662530899048
1764808558.939969,2.6365537879705427,1.6298048493564128,-0.9698390116289257,1.642382264137268,0.3139820098876953,2.8313755989074707,,,,,,
1764808558.940541,,,,,,,0.11644083261489868,0.5341222286224365,0.20331010222434998,-0.49386680126190186,1.8112908601760864,-2.8184561729431152
1764808558.950021,2.466604633066058,1.8110878837019204,-1.0367131381146608,1.7280797958374023,0.39185523986816406,2.933431625366211,,,,,,
1764808558.950571,,,,,,,0.14643794298171997,0.5030611157417297,0.23495951294898987,-0.4018809497356415,1.9499497413635254,-2.9385836124420166
1764808558.960073,2.413992402297258,2.0159026002824305,-1.0422086667910218,1.8254318237304688,0.44909048080444336,3.035860538482666,,,,,,
1764808558.960602,,,,,,,0.17159944772720337,0.4791187047958374,0.2689772844314575,-0.3231472373008728,2.099400043487549,-3.0196917057037354
1764808558.970125,2.389865676778555,2.1241274126797913,-1.0761460077062248,1.918438196182251,0.5057713389396667,3.1268229484558105,,,,,,
1764808558.970632,,,,,,,0.2018892467021942,0.4420498013496399,0.2848072946071625,-0.2573423385620117,2.214566469192505,-3.0931549072265625
1764808558.980177,2.458514850112796,2.180889748865366,-1.1158581326305865,2.0029304027557373,0.5829277038574219,3.2057666778564453,,,,,,
1764808558.980662,,,,,,,0.23365622758865356,0.41344547271728516,0.29868894815444946,-0.20349374413490295,2.337278366088867,-3.1391515731811523
1764808558.99023,2.5216022976666688,2.1722055071502924,-1.0656710831820964,2.07706356048584,0.6640747785568237,3.2863669395446777,,,,,,
1764808558.990692,,,,,,,0.2582855820655823,0.39620453119277954,0.3121911883354187,-0.10703770816326141,2.4600229263305664,-3.1325807571411133
1764808559.000282,2.459491586190462,2.1964596584409475,-0.9703659581124782,2.135322093963623,0.7238313555717468,3.375403642654419,,,,,,
1764808559.000722,,,,,,,0.2755497395992279,0.3715609312057495,0.3112843930721283,0.016975050792098045,2.5666286945343018,-3.146723747253418
1764808559.010334,2.244998940682411,2.3142086705088616,-0.88522508418262,2.1671946048736572,0.7408100366592407,3.464160203933716,,,,,,
1764808559.010752,,,,,,,0.2935883104801178,0.36759626865386963,0.301950603723526,0.13556697964668274,2.677603244781494,-3.172417402267456
1764808559.020387,1.926987468510866,2.372595393025875,-1.0235288085013627,2.181455373764038,0.7576530575752258,3.526097297668457,,,,,,
1764808559.020782,,,,,,,0.32096174359321594,0.3533586859703064,0.2863187789916992,0.301608145236969,2.7397332191467285,-3.1705617904663086
1764808559.030439,1.7147510774970054,2.434442485129833,-1.2463608278095721,2.207075595855713,0.7975714206695557,3.5539896488189697,,,,,,
1764808559.030812,,,,,,,0.35387131571769714,0.33281952142715454,0.2968566119670868,0.45497262477874756,2.784515142440796,-3.2117698192596436
1764808559.040491,1.7001771932214498,2.6690947060912844,-1.3879218003585934,2.2426366806030273,0.864173948764801,3.58888840675354,,,,,,
1764808559.040842,,,,,,,0.3736618757247925,0.3528711199760437,0.34859615564346313,0.5630269050598145,2.8679137229919434,-3.2199931144714355
1764808559.050543,1.7288520835638046,2.7976258089363575,-1.4343325461387633,2.272927761077881,0.9480369091033936,3.654832601547241,,,,,,
1764808559.050872,,,,,,,0.39241254329681396,0.34765905141830444,0.352824330329895,0.6815672516822815,2.8927953243255615,-3.211813449859619
1764808559.060595,1.600773985183239,2.626538589912653,-1.3208496670827268,2.2757484912872314,1.0171127319335938,3.7273471355438232,,,,,,
1764808559.060903,,,,,,,0.4115457236766815,0.28001290559768677,0.33397573232650757,0.779859721660614,2.9172122478485107,-3.187889337539673
1764808559.070648,1.3047574871987104,2.330366316844523,-1.2532581861078738,2.25604510307312,1.054237723350525,3.7676634788513184,,,,,,
1764808559.070933,,,,,,,0.41628676652908325,0.22083157300949097,0.31878745555877686,0.8318998217582703,2.941554069519043,-3.1955792903900146
1764808559.0807,1.076199491459131,2.2527852106444537,-1.1735019278258085,2.2384192943573,1.057263970375061,3.765472412109375,,,,,,
1764808559.080963,,,,,,,0.4133986234664917,0.1983264684677124,0.32011643052101135,0.8817830085754395,2.9771974086761475,-3.212820529937744
1764808559.090752,1.0031780943900346,2.5026857080116867,-1.0923650288403033,2.2280001640319824,1.0320355892181396,3.7600741386413574,,,,,,
1764808559.090993,,,,,,,0.42258185148239136,0.18480437994003296,0.33211472630500793,0.9374749660491943,3.028409719467163,-3.2004308700561523
1764808559.100804,0.8784025446861982,2.9333178894519802,-1.138800616800785,2.235539197921753,1.005951166152954,3.775712251663208,,,,,,
1764808559.101023,,,,,,,0.44325539469718933,0.16247284412384033,0.35114771127700806,0.9848576784133911,3.0618679523468018,-3.208435535430908
1764808559.110856,0.6644184332221746,3.241941940075159,-1.244177054029703,2.2575411796569824,0.9942849278450012,3.81097149848938,,,,,,
1764808559.111053,,,,,,,0.46944984793663025,0.1413746476173401,0.37049978971481323,1.005338430404663,3.096885919570923,-3.1967780590057373
1764808559.120908,0.4426198486149311,3.272142432549596,-1.3034900976113974,2.2795283794403076,1.0064067840576172,3.84492826461792,,,,,,
1764808559.121083,,,,,,,0.49582189321517944,0.11937510967254639,0.34972232580184937,1.0532734394073486,3.101726531982422,-3.179158926010132
1764808559.13096,0.2702034268140793,3.150976305514574,-1.2317530412644146,2.297680139541626,1.008634328842163,3.8611419200897217,,,,,,
1764808559.131113,,,,,,,0.5037661194801331,0.10212445259094238,0.3444487750530243,1.0850884914398193,3.121363401412964,-3.1977860927581787
1764808559.141012,0.19926117410659788,3.1160256959035992,-1.1622076497428118,2.298715829849243,0.9919565320014954,3.8732452392578125,,,,,,
1764808559.141143,,,,,,,0.5030835866928101,0.11845201253890991,0.3560391366481781,1.1154175996780396,3.1688783168792725,-3.2117278575897217
1764808559.151065,0.15998364120721817,3.224171597845852,-1.2378057654321193,2.289322853088379,0.9791401028633118,3.8869636058807373,,,,,,
1764808559.151173,,,,,,,0.5151135921478271,0.11860400438308716,0.36425554752349854,1.131639003753662,3.195051908493042,-3.2128984928131104
1764808559.161118,0.05145780003666878,3.2213246839821337,-1.3069219717562197,2.2774436473846436,0.9775031208992004,3.9018049240112305,,,,,,
1764808559.161203,,,,,,,0.5298628807067871,0.07574081420898438,0.3596319258213043,1.1237694025039673,3.2008798122406006,-3.1874399185180664
1764808559.171169,-0.13304419635534287,3.031869449096918,-1.2174344469241798,2.259709596633911,0.9602498412132263,3.8961057662963867,,,,,,
1764808559.171234,,,,,,,0.5345034599304199,0.024555861949920654,0.3281751871109009,1.0616259574890137,3.189624071121216,-3.1803975105285645
1764808559.181221,-0.23010697874724864,2.780002473962307,-1.0634485848270356,2.244611978530884,0.9082028865814209,3.874748468399048,,,,,,
1764808559.181264,,,,,,,0.5256303548812866,-0.009273827075958252,0.31023719906806946,1.0283513069152832,3.1964707374572754,-3.1455609798431396
1764808559.191273,-0.30372166553437707,2.752649772134423,-0.9484253444612025,2.2165298461914062,0.8370445370674133,3.8639309406280518,,,,,,
1764808559.191294,,,,,,,0.5110763311386108,-0.010274112224578857,0.31988322734832764,0.9816638827323914,3.214325428009033,-3.1323020458221436
1764808559.201324,,,,,,,0.5015754103660583,0.020865321159362793,0.3487892150878906,1.006862998008728,3.2533087730407715,-3.067704439163208
1764808559.201325,-0.5204068526506423,2.9628964506357907,-1.1735418214447795,2.1909232139587402,0.8089574575424194,3.8522534370422363,,,,,,
1764808559.211354,,,,,,,0.5108336210250854,-0.009228289127349854,0.3178151249885559,1.0467278957366943,3.2272164821624756,-3.0318491458892822
1764808559.211377,-0.7993892137259244,3.005575024150312,-1.4649983180373907,2.1723721027374268,0.8327764868736267,3.8205273151397705,,,,,,
1764808559.221384,,,,,,,0.5124184489250183,-0.06261706352233887,0.30443620681762695,1.040656328201294,3.2040743827819824,-3.0039632320404053
1764808559.221429,-1.0383639740616082,2.795213487097621,-1.393442901867628,2.142273187637329,0.8187451362609863,3.7655296325683594,,,,,,
1764808559.231414,,,,,,,0.5095446705818176,-0.08482897281646729,0.3161083459854126,1.0615707635879517,3.199033260345459,-2.9397387504577637
1764808559.231481,-1.1807973455309868,2.6106369641646743,-1.1869295646756888,2.1053926944732666,0.7576144337654114,3.698556661605835,,,,,,
1764808559.241444,,,,,,,0.5056887865066528,-0.09459549188613892,0.3091391324996948,1.115107774734497,3.179877758026123,-2.9197402000427246
1764808559.241534,-1.3233645725131034,2.6679329688355327,-1.2202215934246778,2.073197841644287,0.7120146751403809,3.622004747390747,,,,,,
1764808559.251474,,,,,,,0.5027583241462708,-0.11637169122695923,0.32631659507751465,1.1045451164245605,3.153262138366699,-2.909019708633423
1764808559.251586,-1.470866917809844,2.918307659585774,-1.5040204148709773,2.058121919631958,0.709624707698822,3.5477380752563477,,,,,,
1764808559.261504,,,,,,,0.5082698464393616,-0.12905091047286987,0.31980860233306885,1.0750393867492676,3.1280884742736816,-2.8624255657196045
1764808559.261638,-1.5269582228660583,3.111945148591697,-1.6823785016804933,2.052659511566162,0.7144408226013184,3.487107992172241,,,,,,
1764808559.271535,,,,,,,0.5075196027755737,-0.14025896787643433,0.3325331211090088,1.0040650367736816,3.08903431892395,-2.859800100326538
1764808559.271691,-1.3731617458611727,3.0672084735035896,-1.7145862423241138,2.0617105960845947,0.7030262351036072,3.4289321899414062,,,,,,
1764808559.281565,,,,,,,0.4912866950035095,-0.10824334621429443,0.3751559257507324,0.9406316876411438,3.0969290733337402,-2.7449495792388916
1764808559.281742,-1.1096961028695105,3.0848902606666084,-1.65970606662333,2.0827863216400146,0.7074556946754456,3.3990278244018555,,,,,,
1764808559.291595,,,,,,,0.4772939682006836,-0.1294236183166504,0.3269624710083008,0.9698674082756042,3.0681710243225098,-2.6526081562042236
1764808559.291794,-1.1607353852331637,2.9830981116652486,-1.3427531635940073,2.089750051498413,0.7079217433929443,3.384237766265869,,,,,,
1764808559.301625,,,,,,,0.45442700386047363,-0.19593292474746704,0.26462656259536743,0.9204343557357788,3.040459394454956,-2.623826026916504
1764808559.301846,-1.5194488701492548,2.7256664881408215,-1.0355565154254436,2.0658397674560547,0.6633347868919373,3.322972059249878,,,,,,
1764808559.311655,,,,,,,0.4599728584289551,-0.20749223232269287,0.22508960962295532,0.9003889560699463,2.9807324409484863,-2.5541441440582275
1764808559.311898,-1.805709697794914,2.5006255606114864,-0.8498211778461933,2.0061488151550293,0.5996394157409668,3.202819585800171,,,,,,
1764808559.321685,,,,,,,0.4897378087043762,-0.16842901706695557,0.18337929248809814,0.960412859916687,2.90366530418396,-2.4586710929870605
1764808559.321951,-1.8863766411811111,2.3633961875259875,-0.7558873411297797,1.9385933876037598,0.5666206479072571,3.072364091873169,,,,,,
1764808559.331715,,,,,,,0.47919005155563354,-0.1521918773651123,0.19311702251434326,1.0212777853012085,2.845724582672119,-2.416134834289551
1764808559.332003,-1.9272335522264241,2.3721511563897133,-0.8383015665747224,1.8872159719467163,0.5630623698234558,2.942075252532959,,,,,,
1764808559.341745,,,,,,,0.45285362005233765,-0.16624218225479126,0.24356766045093536,1.071527361869812,2.8352348804473877,-2.3428232669830322
1764808559.342055,-1.8795541016846895,2.863071802315116,-1.1172702644508332,1.8744596242904663,0.5880762934684753,2.8294122219085693,,,,,,
1764808559.351775,,,,,,,0.45658302307128906,-0.17742639780044556,0.24562568962574005,1.0979558229446411,2.7926459312438965,-2.3046417236328125
1764808559.352107,-1.8013883274644613,3.300170841681957,-1.1667291457552462,1.875220775604248,0.6155121922492981,2.7529919147491455,,,,,,
1764808559.361805,,,,,,,0.4605361223220825,-0.1683942675590515,0.27419430017471313,1.1226688623428345,2.7574644088745117,-2.2453055381774902
1764808559.362159,-1.7109025853753088,3.384420904251933,-1.2455356290318071,1.8960705995559692,0.619140088558197,2.6927108764648438,,,,,,
1764808559.371835,,,,,,,0.45206958055496216,-0.16692250967025757,0.2935647964477539,1.0795663595199585,2.701265811920166,-2.242949962615967
1764808559.372211,-1.5492396127790211,3.370831939360499,-1.5234427620910107,1.9215549230575562,0.6437884569168091,2.6080970764160156,,,,,,
1764808559.381866,,,,,,,0.45737922191619873,-0.12359803915023804,0.3190111219882965,0.920538067817688,2.671935558319092,-2.1761271953582764
1764808559.382263,-1.1845166583150624,3.3256624258130785,-1.4331212706528602,1.915791392326355,0.6818234324455261,2.5277340412139893,,,,,,
1764808559.391896,,,,,,,0.48755139112472534,-0.09983706474304199,0.2665596008300781,0.7189332842826843,2.6004669666290283,-2.1220338344573975
1764808559.392315,-0.7012783835858106,3.0808506298869847,-0.938158655860275,1.8526531457901,0.642841637134552,2.4750726222991943,,,,,,
1764808559.401926,,,,,,,0.4956810474395752,-0.15601158142089844,0.20868724584579468,0.48417454957962036,2.5009002685546875,-2.092681884765625
1764808559.402367,-0.432347460925579,2.7608435999840495,-0.722426970076561,1.7740343809127808,0.48744717240333557,2.4325406551361084,,,,,,
1764808559.411956,,,,,,,0.4776216149330139,-0.2003437876701355,0.17754042148590088,0.30660176277160645,2.423456907272339,-2.06794810295105
1764808559.41242,-0.6838765824079514,2.49142460154593,-0.6704314099013805,1.6728500127792358,0.2940281927585602,2.322971820831299,,,,,,
1764808559.421986,,,,,,,0.46161454916000366,-0.14470550417900085,0.17935588955879211,0.2883026599884033,2.368149518966675,-2.0004615783691406
1764808559.422472,-0.9503466679126024,2.69534441511333,-0.7188603636361658,1.6051356792449951,0.11170566082000732,2.201580286026001,,,,,,
1764808559.432016,,,,,,,0.4473389983177185,-0.09321394562721252,0.1619163155555725,0.3120231330394745,2.294726610183716,-1.9736297130584717
1764808559.432524,-1.270747665569186,3.0548154403984547,-0.9088272013053298,1.5521131753921509,0.03188379481434822,2.0991952419281006,,,,,,
1764808559.442046,,,,,,,0.4437767267227173,-0.09244853258132935,0.1772591471672058,0.26467424631118774,2.228083610534668,-1.8974027633666992
1764808559.442576,-1.560741250002384,3.2879397211402654,-1.0380258281484245,1.5176019668579102,0.03608402609825134,2.0258302688598633,,,,,,
1764808559.452076,,,,,,,0.4576498866081238,-0.12368103861808777,0.18173635005950928,0.1992255598306656,2.1329500675201416,-1.8172729015350342
1764808559.452628,-1.699833494350314,3.219696205997467,-0.969355612026155,1.4934638738632202,0.07699950039386749,1.9687601327896118,,,,,,
1764808559.462106,,,,,,,0.43995022773742676,-0.1531156599521637,0.15426737070083618,0.14842575788497925,2.067505359649658,-1.756168007850647
1764808559.46268,-1.716795735067129,2.9036393750250338,-0.6422127388939262,1.4400461912155151,0.10548018664121628,1.8957860469818115,,,,,,
1764808559.472136,,,,,,,0.41638392210006714,-0.13759246468544006,0.13725265860557556,0.17356428503990173,1.9841865301132202,-1.7009825706481934
1764808559.472732,-1.6270570119529961,2.649877379924059,-0.5165571914851665,1.388109564781189,0.08417703211307526,1.763497233390808,,,,,,
1764808559.482167,,,,,,,0.41517138481140137,-0.13484445214271545,0.0643579363822937,0.18294073641300201,1.8657282590866089,-1.644982099533081
1764808559.482784,-1.5861132994070648,2.410470073390007,0.026818156559765337,1.2973823547363281,-0.012959469109773636,1.617270827293396,,,,,,
1764808559.492197,,,,,,,0.4282611608505249,-0.13865381479263306,0.002522677183151245,0.050217222422361374,1.759168267250061,-1.5949660539627075
1764808559.492836,-1.9448019421428442,2.149386357098818,0.40245647279173136,1.1656477451324463,-0.12464791536331177,1.4393945932388306,,,,,,
1764808559.502227,,,,,,,0.44350898265838623,-0.1727721095085144,-0.03955426812171936,-0.03806044161319733,1.5498979091644287,-1.4493480920791626
1764808559.502889,-0.9627154433593154,2.579237909555435,0.24953531731665132,1.0539637804031372,-0.1316990703344345,1.407742977142334,,,,,,
1764808559.512257,,,,,,,0.46338409185409546,-0.18613582849502563,-0.09296742081642151,0.06014884635806084,1.3314156532287598,-1.4526586532592773
1764808559.512941,-1.113619121532142,2.4837094971239564,0.6892553528368472,0.9218989610671997,-0.1533585488796234,1.360485553741455,,,,,,
1764808559.522287,,,,,,,0.40918993949890137,-0.17682647705078125,-0.14563024044036865,-0.0008175657130777836,1.2273608446121216,-1.2947654724121094
1764808559.522993,-1.705726936303079,1.9839625706642865,0.8643477158486843,0.7847261428833008,-0.18071317672729492,1.2502734661102295,,,,,,
1764808559.532317,,,,,,,0.3927552103996277,-0.20594248175621033,-0.1516515612602234,-0.1120440885424614,1.0590966939926147,-1.1998600959777832
1764808559.533045,-2.0635162921115753,1.8418506862342356,0.9521458262890576,0.6667094826698303,-0.20204856991767883,1.0976297855377197,,,,,,
1764808559.542347,,,,,,,0.40745556354522705,-0.22844526171684265,-0.15478497743606567,-0.239887535572052,0.8859876394271851,-1.083250880241394
1764808559.543097,-1.9536764457330107,2.2104121959477663,1.1508625182554124,0.5790802836418152,-0.1965067982673645,0.9508073925971985,,,,,,
1764808559.552377,,,,,,,0.4129078984260559,-0.25239238142967224,-0.19954264163970947,-0.17946666479110718,0.6698681116104126,-0.9380690455436707
1764808559.553149,-1.2770131557047366,2.4013474402576684,1.4699115167811512,0.4728667438030243,-0.16907542943954468,0.9030857086181641,,,,,,
1764808559.562407,,,,,,,0.38571178913116455,-0.2216428518295288,-0.27611714601516724,-0.061794623732566833,0.5401644110679626,-0.8274631500244141
1764808559.563201,-1.7090584188133477,1.745352551987767,1.9272975573733448,0.31781765818595886,-0.16238628327846527,0.7763350605964661,,,,,,
1764808559.572437,,,,,,,0.36779165267944336,-0.1946108341217041,-0.3008164167404175,-0.011263466440141201,0.3771060109138489,-0.6265377402305603
1764808559.573253,-1.9226742814868687,1.5421201361626387,1.8716802995696662,0.16650377213954926,-0.14357291162014008,0.6065793037414551,,,,,,
1764808559.582467,,,,,,,0.39905017614364624,-0.20039165019989014,-0.30158644914627075,0.07495743781328201,0.16846942901611328,-0.4726264476776123
1764808559.583306,-2.131853038495779,1.7791753266125916,1.905293815357983,0.03344053775072098,-0.10331577062606812,0.4335702359676361,,,,,,
1764808559.592498,,,,,,,0.40881240367889404,-0.22279775142669678,-0.3175554871559143,0.07870249450206757,-0.009499771520495415,-0.29278430342674255
1764808559.593358,-2.2522169092372057,1.9074451481729744,2.0060878932327033,-0.08800413459539413,-0.04701415076851845,0.25470009446144104,,,,,,
1764808559.602528,,,,,,,0.4020689129829407,-0.26215705275535583,-0.32410621643066406,0.07938826084136963,-0.17122900485992432,-0.09795650094747543
1764808559.60341,-2.21287683249563,1.898626466423273,2.1372736022397874,-0.20505394041538239,-0.012934403494000435,0.06459915637969971,,,,,,
1764808559.612558,,,,,,,0.4102182984352112,-0.2962562143802643,-0.33407384157180786,0.10752620548009872,-0.34597471356391907,0.11627889424562454
1764808559.613462,-2.170324223448336,1.9731348871797323,2.2980519009560347,-0.3240085542201996,0.002494087442755699,-0.12898708879947662,,,,,,
1764808559.622588,,,,,,,0.4306483864784241,-0.29198116064071655,-0.3514168858528137,0.16699111461639404,-0.5153296589851379,0.3492165207862854
1764808559.623514,-2.2712200081318614,2.1344009694129227,2.3615289323493838,-0.4572621285915375,0.03275081142783165,-0.3327256143093109,,,,,,
1764808559.632618,,,,,,,0.4608277678489685,-0.2829678952693939,-0.3569716811180115,0.22315239906311035,-0.7060452699661255,0.5827129483222961
1764808559.633566,-2.4417680057123303,2.1092127521425486,2.182696213765442,-0.5850685238838196,0.08036467432975769,-0.5562077164649963,,,,,,
1764808559.642648,,,,,,,0.47681838274002075,-0.3097185790538788,-0.3363233208656311,0.24846121668815613,-0.9013098478317261,0.8140881061553955
1764808559.643618,-2.4749995364457367,1.981128808543086,1.928953507886827,-0.6963415145874023,0.11668886989355087,-0.8024623394012451,,,,,,
1764808559.652678,,,,,,,0.4627910256385803,-0.34006091952323914,-0.30146586894989014,0.2340579330921173,-1.073521614074707,1.0312901735305786
1764808559.65367,-2.3740943994119763,1.9834534520983695,1.6550272611573338,-0.7985256314277649,0.1339416205883026,-1.0420515537261963,,,,,,
1764808559.662708,,,,,,,0.43811142444610596,-0.34784483909606934,-0.26882386207580566,0.20876510441303253,-1.2341376543045044,1.2390676736831665
1764808559.663722,-2.2634695401355622,1.8479367281496524,1.337701433162391,-0.9023152589797974,0.1332934945821762,-1.2900917530059814,,,,,,
1764808559.672738,,,,,,,0.4275290369987488,-0.3397674262523651,-0.21701544523239136,0.16039685904979706,-1.4009897708892822,1.4401825666427612
1764808559.673775,-2.0746090562731028,1.9310352825969457,0.9926020475789904,-0.986329197883606,0.12431039661169052,-1.5366421937942505,,,,,,
1764808559.682768,,,,,,,0.4267021417617798,-0.33748623728752136,-0.17229503393173218,0.09207134693861008,-1.5436110496520996,1.6414531469345093
1764808559.683827,-1.864168608765304,2.107684227401018,0.8290499002352356,-1.0546793937683105,0.10186711698770523,-1.757943868637085,,,,,,
1764808559.692799,,,,,,,0.42322391271591187,-0.33630117774009705,-0.13431042432785034,0.006177207455039024,-1.6749651432037354,1.8312041759490967
1764808559.693879,-1.7793913074508307,2.012929137429595,0.5860130050271749,-1.1146081686019897,0.09140275418758392,-1.9470751285552979,,,,,,
1764808559.702829,,,,,,,0.41052472591400146,-0.31837934255599976,-0.09779834747314453,-0.05876930058002472,-1.7968963384628296,1.9899256229400635
1764808559.703931,-1.7821634025126694,1.8537445376455783,0.3665542615443468,-1.175508737564087,0.07692887634038925,-2.12913179397583,,,,,,
1764808559.712859,,,,,,,0.38987863063812256,-0.29152607917785645,-0.06686222553253174,-0.0812191441655159,-1.8835641145706177,2.1420252323150635
1764808559.713983,-1.7471575555831194,1.8782856891840696,0.2210030503153801,-1.2310601472854614,0.04869350790977478,-2.310065746307373,,,,,,
1764808559.722889,,,,,,,0.37304431200027466,-0.2594909965991974,-0.039964258670806885,-0.05208149924874306,-1.9540112018585205,2.278790235519409
1764808559.724035,-1.6692349424690007,2.015110573121905,0.13493775501698255,-1.2820096015930176,0.013976103626191616,-2.4751687049865723,,,,,,
1764808559.732919,,,,,,,0.37362295389175415,-0.21902266144752502,-0.018037855625152588,0.029728496447205544,-1.994734287261963,2.4205355644226074
1764808559.734087,-1.632150535699725,2.270381219220161,0.09375234266966581,-1.3400382995605469,0.0010725557804107666,-2.6111598014831543,,,,,,
1764808559.742949,,,,,,,0.3953019380569458,-0.17344903945922852,0.0033393502235412598,0.12135268747806549,-2.0316784381866455,2.5396368503570557
1764808559.744139,-1.6955583012491464,2.534757547315955,-0.06168386436626315,-1.4083178043365479,0.013345349580049515,-2.7281413078308105,,,,,,
1764808559.752979,,,,,,,0.4254201650619507,-0.15068870782852173,0.045247435569763184,0.20141850411891937,-2.1210384368896484,2.633479118347168
1764808559.754192,-1.6382015063017605,2.516291916298866,-0.5106675489246845,-1.4303961992263794,0.037178780883550644,-2.827707052230835,,,,,,
1764808559.763009,,,,,,,0.4108254313468933,-0.1688326895236969,0.08175274729728699,0.22974655032157898,-2.2078397274017334,2.7029802799224854
1764808559.764244,-1.4357476736336945,2.2440952698409555,-0.6989645536854863,-1.4081876277923584,0.06701662391424179,-2.9318389892578125,,,,,,
1764808559.773039,,,,,,,0.34894388914108276,-0.1587897539138794,0.11961981654167175,0.15341751277446747,-2.1587882041931152,2.8104405403137207
1764808559.774296,-1.141051610597968,2.244598543187976,-0.5850761625684797,-1.4034581184387207,0.09856443107128143,-3.044461727142334,,,,,,
1764808559.783069,,,,,,,0.31664609909057617,-0.11284869909286499,0.1710241734981537,0.05795864015817642,-2.0696489810943604,2.906118392944336
1764808559.784348,-0.7634972316116094,2.5642969455331563,-0.5409788082972169,-1.3933038711547852,0.09377612918615341,-3.1478612422943115,,,,,,
1764808559.793099,,,,,,,0.33686989545822144,-0.09287309646606445,0.1730823516845703,-0.0909903347492218,-2.0300967693328857,2.9789304733276367
1764808559.7944,-0.4736825108766555,2.9940438685715196,-0.477599976581335,-1.387725591659546,0.03599964827299118,-3.1987533569335938,,,,,,
1764808559.80313,,,,,,,0.38600999116897583,-0.11854147911071777,0.14918580651283264,-0.21635891497135162,-2.0574893951416016,3.0254452228546143
1764808559.804452,-0.4460211814910173,3.01038067086637,-0.4444507173039019,-1.4157284498214722,-0.03768229857087135,-3.2309277057647705,,,,,,
1764808559.81316,,,,,,,0.43105679750442505,-0.13682353496551514,0.12488201260566711,-0.31701603531837463,-2.110091209411621,3.094426155090332
1764808559.814504,-0.5881096850454807,2.799476989760995,-0.46447658337503667,-1.4700335264205933,-0.10702967643737793,-3.274186372756958,,,,,,
1764808559.82319,,,,,,,0.45708799362182617,-0.10266107320785522,0.10437765717506409,-0.30467894673347473,-2.2015368938446045,3.113729476928711
1764808559.824556,-0.6836778449654579,2.3823873037219045,-0.6416894456721842,-1.5249543190002441,-0.15610811114311218,-3.3307676315307617,,,,,,
1764808559.83322,,,,,,,0.4239792823791504,-0.04616767168045044,0.14877676963806152,-0.24771374464035034,-2.274385690689087,3.1446127891540527
1764808559.834608,-0.6300543913275003,1.9987726017832754,-0.8197019339144229,-1.5404325723648071,-0.15271364152431488,-3.378721237182617,,,,,,
1764808559.84325,,,,,,,0.35516417026519775,0.0176619291305542,0.18313653767108917,-0.13184785842895508,-2.2299389839172363,3.218554735183716
1764808559.844661,-0.582387215745449,2.041051654586196,-0.886983910548687,-1.5474900007247925,-0.09264281392097473,-3.3947103023529053,,,,,,
1764808559.85328,,,,,,,0.30115169286727905,0.04718059301376343,0.21483714878559113,0.0007666284800507128,-2.160600423812866,3.208953857421875
1764808559.854713,-0.580235006147623,2.3117577702254057,-1.0690252159155904,-1.5489577054977417,-0.01329366397112608,-3.4088237285614014,,,,,,
1764808559.86331,,,,,,,0.27718621492385864,0.042701900005340576,0.24903620779514313,0.10814794152975082,-2.1005473136901855,3.2166075706481934
1764808559.864765,-0.5234405212581157,2.6683956179112194,-1.1825729769013822,-1.5232250690460205,0.04056071490049362,-3.422717571258545,,,,,,
1764808559.87334,,,,,,,0.29849594831466675,0.03809410333633423,0.22557099163532257,0.1694437712430954,-2.0363540649414062,3.236133337020874
1764808559.874817,-0.46142450232803817,3.0777339591711756,-0.8209713693283498,-1.5218428373336792,0.05892108008265495,-3.425010919570923,,,,,,
1764808559.88337,,,,,,,0.3533576726913452,0.04326295852661133,0.1863226741552353,0.12923510372638702,-1.960870623588562,3.2337844371795654
1764808559.884869,-0.46389761444330213,3.454433182632923,-0.3835876678012311,-1.5499268770217896,0.029904192313551903,-3.4287896156311035,,,,,,
1764808559.8934,,,,,,,0.42773282527923584,0.02808612585067749,0.19093836843967438,-0.001465395325794816,-1.9550892114639282,3.201507806777954
1764808559.894921,-0.46692134617865083,3.701647071264684,-0.39748409120663997,-1.563783049583435,-0.037296682596206665,-3.441831350326538,,,,,,
1764808559.903431,,,,,,,0.4877643585205078,-0.01691269874572754,0.1903822273015976,-0.21223515272140503,-2.06656551361084,3.1856689453125
1764808559.904973,-0.3710334527850151,3.52247386868,-0.7768108866930008,-1.550316572189331,-0.11123161017894745,-3.4513447284698486,,,,,,
1764808559.913461,,,,,,,0.48907971382141113,-0.045915961265563965,0.19602878391742706,-0.38192218542099,-2.1824393272399902,3.2186756134033203
1764808559.915025,-0.18998247362971304,3.0244699864953755,-0.9444459194362163,-1.5444693565368652,-0.1607176661491394,-3.4625184535980225,,,,,,
1764808559.923491,,,,,,,0.42754989862442017,-0.015819191932678223,0.17835162580013275,-0.4139176607131958,-2.1580209732055664,3.249955892562866
1764808559.925078,0.021666472885012625,2.692809343677759,-0.8033237036306411,-1.5783560276031494,-0.20698441565036774,-3.456406831741333,,,,,,
1764808559.933521,,,,,,,0.3662315011024475,0.039904773235321045,0.18290966749191284,-0.30129095911979675,-2.0948073863983154,3.253253936767578
1764808559.93513,0.0663490796983242,2.6116990404382348,-0.7004349184989929,-1.6533517837524414,-0.2266465276479721,-3.448037624359131,,,,,,
1764808559.943551,,,,,,,0.3618917465209961,0.08186691999435425,0.1770331859588623,-0.14408111572265625,-2.0545895099639893,3.312556743621826
1764808559.945182,-0.14069032719433308,2.712466522566974,-0.7217652912974357,-1.7329387664794922,-0.20853736996650696,-3.4486172199249268,,,,,,
1764808559.953581,,,,,,,0.39937084913253784,0.08235913515090942,0.17886865139007568,-0.013058491051197052,-2.0600125789642334,3.334519386291504
1764808559.955234,-0.451627915456891,2.9712758641853925,-0.808273434992507,-1.8057607412338257,-0.17991903424263,-3.4688055515289307,,,,,,
1764808559.963611,,,,,,,0.4294346272945404,0.05454665422439575,0.21634554862976074,0.013685771264135838,-2.055549144744873,3.356091022491455
1764808559.965286,-0.71043667255342,3.3234029564484953,-0.9644681322455405,-1.8521379232406616,-0.14525315165519714,-3.4893696308135986,,,,,,
1764808559.973641,,,,,,,0.4510015845298767,0.024667859077453613,0.23716682195663452,-0.008590378798544407,-2.0470709800720215,3.410161256790161
1764808559.975338,-0.931896818986535,3.561950723543763,-1.0507879868268966,-1.8688859939575195,-0.09770959615707397,-3.497760534286499,,,,,,
1764808559.983671,,,,,,,0.46589794754981995,-0.010899722576141357,0.23633962869644165,-0.053439341485500336,-2.062678337097168,3.451835870742798
1764808559.98539,-1.11639238563776,3.638186406484246,-1.0716226850628852,-1.8643878698349,-0.04538991302251816,-3.5239040851593018,,,,,,
1764808559.993701,,,,,,,0.46857962012290955,-0.0369412899017334,0.23815184831619263,-0.18220865726470947,-2.070603847503662,3.478370189666748
1764808559.995442,-1.1932669510036706,3.5720635367572307,-1.1976420973479747,-1.8452825546264648,-0.00428029103204608,-3.6051182746887207,,,,,,
1764808560.003732,,,,,,,0.4577403664588928,-0.06636887788772583,0.27952277660369873,-0.36669567227363586,-2.0747437477111816,3.5123186111450195
1764808560.005494,-1.0040367570459843,3.4293162770330903,-1.3148387362301348,-1.8117408752441406,-0.011571035720407963,-3.728703022003174,,,,,,
1764808560.013762,,,,,,,0.442679762840271,-0.08693671226501465,0.305030882358551,-0.6119627952575684,-2.0289175510406494,3.591324806213379
1764808560.015547,-0.5395025982648134,3.4963691210865973,-1.468384453344345,-1.7853434085845947,-0.07347434759140015,-3.8562774658203125,,,,,,
1764808560.023792,,,,,,,0.4451841115951538,-0.06963837146759033,0.34028130769729614,-0.8704500198364258,-2.034161329269409,3.5809316635131836
1764808560.025599,0.19803075552880764,3.82646967498064,-1.638665032160282,-1.7639294862747192,-0.19463519752025604,-3.971935749053955,,,,,,
1764808560.033822,,,,,,,0.45905163884162903,-0.00870281457901001,0.37706899642944336,-1.1310601234436035,-2.0678560733795166,3.5727367401123047
1764808560.035651,1.1104238326221705,4.0852343006744976,-1.6482617125451564,-1.7175735235214233,-0.37736162543296814,-4.012427806854248,,,,,,
1764808560.043852,,,,,,,0.47643643617630005,0.07084691524505615,0.34981775283813477,-1.2264320850372314,-2.076237678527832,3.5967304706573486
1764808560.045703,1.7112293331116437,4.08732893486619,-1.3640531412541865,-1.6970404386520386,-0.5863766074180603,-3.920325994491577,,,,,,
1764808560.053882,,,,,,,0.47691190242767334,0.1266404390335083,0.30654656887054443,-1.1314940452575684,-2.097325086593628,3.574155569076538
1764808560.055755,1.461180221053958,3.7406604002699253,-1.113469776189327,-1.7358331680297852,-0.7582594156265259,-3.775758743286133,,,,,,
1764808560.063912,,,,,,,0.4606429934501648,0.16126340627670288,0.2715877294540405,-0.8515667915344238,-2.1048951148986816,3.5425102710723877
1764808560.065807,0.6201040751993656,3.2047076034411788,-0.9884341142445802,-1.8208417892456055,-0.8363187313079834,-3.6686925888061523,,,,,,
1764808560.073942,,,,,,,0.44402843713760376,0.1880761981010437,0.2352811098098755,-0.4841214418411255,-2.0915093421936035,3.5379586219787598
1764808560.075859,-0.30405718109905716,2.9467624774366614,-0.9747820209890603,-1.922640323638916,-0.8097710013389587,-3.640456438064575,,,,,,
1764808560.083972,,,,,,,0.43783360719680786,0.2366255521774292,0.23234915733337402,-0.17937539517879486,-2.0473203659057617,3.56618332862854
1764808560.085911,-0.8940835134208202,3.04158244933784,-0.9672159696489572,-2.0096020698547363,-0.7109071612358093,-3.6717069149017334,,,,,,
1764808560.094002,,,,,,,0.43717408180236816,0.2345879077911377,0.24740052223205566,0.03728767856955528,-1.991360068321228,3.6280710697174072
1764808560.095963,-1.094568091842532,3.1975124312400816,-0.9938637380778789,-2.0598366260528564,-0.5912097692489624,-3.703369140625,,,,,,
1764808560.104033,,,,,,,0.4305349886417389,0.14716243743896484,0.2458782196044922,0.04905166104435921,-1.9340083599090576,3.5991244316101074
1764808560.106016,-1.1229618271559476,3.472721118995547,-1.069827033817768,-2.0902316570281982,-0.5016553401947021,-3.7324469089508057,,,,,,
1764808560.114063,,,,,,,0.4302932322025299,0.0627487301826477,0.2923544645309448,-0.15988117456436157,-1.8627920150756836,3.5590522289276123
1764808560.116068,-0.884842806866765,3.8790015339896082,-1.2994599653124808,-2.102895498275757,-0.4434168338775635,-3.783733367919922,,,,,,
1764808560.124093,,,,,,,0.45394524931907654,0.035845398902893066,0.3538292646408081,-0.46838921308517456,-1.8279744386672974,3.577631711959839
1764808560.12612,-0.2417857261031866,4.296000034613907,-1.637092668277025,-2.062135934829712,-0.4256536662578583,-3.813422441482544,,,,,,
1764808560.134123,,,,,,,0.48738396167755127,0.06234484910964966,0.3759216070175171,-0.6400697827339172,-1.854098916053772,3.600313663482666
1764808560.136172,0.5536778386116028,4.621643901360034,-1.7017559868454932,-2.015061616897583,-0.4566776156425476,-3.7673251628875732,,,,,,
1764808560.144153,,,,,,,0.5086758732795715,0.12245643138885498,0.3637174367904663,-0.569181501865387,-1.8998091220855713,3.6370689868927
1764808560.146224,1.0361293468773365,4.571574925333262,-1.6044278315156697,-1.999988317489624,-0.5090492963790894,-3.674039840698242,,,,,,
1764808560.154183,,,,,,,0.5002277493476868,0.18682092428207397,0.347381591796875,-0.31134188175201416,-1.9205520153045654,3.655183792114258
1764808560.156276,1.0462789849698544,4.2072851015895605,-1.5424983218252657,-2.0169858932495117,-0.5577529072761536,-3.613222360610962,,,,,,
1764808560.164213,,,,,,,0.468644380569458,0.23825067281723022,0.3368171453475952,-0.026084326207637787,-1.8811601400375366,3.69962215423584
1764808560.166328,0.9034428779184818,3.8442125446811315,-1.511723244333267,-2.045046091079712,-0.5906371474266052,-3.625445604324341,,,,,,
1764808560.174243,,,,,,,0.43758463859558105,0.2478947639465332,0.3189370632171631,0.15687155723571777,-1.786091923713684,3.7769463062286377
1764808560.17638,0.7461644040167331,3.6085090611010786,-1.4407038347363472,-2.0792150497436523,-0.6388928294181824,-3.691943407058716,,,,,,
1764808560.184273,,,,,,,0.421896755695343,0.2066054344177246,0.3288748264312744,0.17534910142421722,-1.6756631135940552,3.839913845062256
1764808560.186433,0.7167185293018817,3.613441841328144,-1.4335785129010676,-2.119161605834961,-0.7225309610366821,-3.786133050918579,,,,,,
1764808560.194303,,,,,,,0.43011748790740967,0.15238618850708008,0.3528311252593994,0.05455993860960007,-1.5949360132217407,3.933260679244995
1764808560.196485,0.8119254546940327,3.6845015829354524,-1.5668974345445632,-2.1445248126983643,-0.8171975016593933,-3.8704171180725098,,,,,,
1764808560.204333,,,,,,,0.4564345180988312,0.10244578123092651,0.3568669557571411,-0.11134541034698486,-1.5693012475967407,3.9782636165618896
1764808560.206537,0.9604261633783578,3.910925489255786,-1.5600117666840552,-2.1720376014709473,-0.9244022369384766,-3.9220950603485107,,,,,,
1764808560.214365,,,,,,,0.4825720191001892,0.10304981470108032,0.37107980251312256,-0.3080994784832001,-1.5260089635849,3.9832112789154053
1764808560.216589,1.1217355002313851,4.368133835193515,-1.3996727361679075,-2.2265713214874268,-1.0458954572677612,-3.9439315795898438,,,,,,
1764808560.224394,,,,,,,0.5268440246582031,0.16243040561676025,0.3769603967666626,-0.387160986661911,-1.484191656112671,4.058878421783447
1764808560.226641,1.2772142312347887,4.707150685992836,-1.4671370836317539,-2.2432289123535156,-1.1580723524093628,-3.9291462898254395,,,,,,
1764808560.234424,,,,,,,0.5721742510795593,0.20094484090805054,0.3665231466293335,-0.2757963240146637,-1.5180010795593262,4.120779514312744
1764808560.236693,1.2424509608894585,4.694347903043031,-1.4323603692829607,-2.2205615043640137,-1.2356007099151611,-3.8825385570526123,,,,,,
1764808560.244454,,,,,,,0.580325722694397,0.21882981061935425,0.3480231761932373,-0.1625664383172989,-1.5493237972259521,4.151854991912842
1764808560.246745,1.0170698416203259,4.424121679875254,-1.0943547413527965,-2.2290596961975098,-1.3076235055923462,-3.8448734283447266,,,,,,
1764808560.254484,,,,,,,0.5651615858078003,0.2492772340774536,0.32206594944000244,-0.12041588127613068,-1.522782564163208,4.204134464263916
1764808560.256797,0.8464467329770327,4.1299359044492245,-0.764261274786666,-2.2929069995880127,-1.411347508430481,-3.8420403003692627,,,,,,
1764808560.264514,,,,,,,0.5621672868728638,0.2657381296157837,0.27099335193634033,-0.12949194014072418,-1.4455682039260864,4.268545627593994
1764808560.266849,0.9907394685775041,4.187543459287285,-0.4661023579459637,-2.38727068901062,-1.5699307918548584,-3.8665945529937744,,,,,,
1764808560.274544,,,,,,,0.5900742411613464,0.2552228569984436,0.256122350692749,-0.2976631224155426,-1.3381426334381104,4.337588310241699
1764808560.276902,1.4256325223326682,4.5988633297532795,-0.21352109706215558,-2.477463722229004,-1.7592262029647827,-3.896331548690796,,,,,,
1764808560.284574,,,,,,,0.6427600979804993,0.20853310823440552,0.29622089862823486,-0.6602338552474976,-1.2769469022750854,4.3807830810546875
1764808560.286954,1.8720155228734014,5.130578927403688,-0.20748298594169318,-2.49951171875,-1.9427725076675415,-3.903197765350342,,,,,,
1764808560.294604,,,,,,,0.6898624897003174,0.13620710372924805,0.3682085871696472,-1.138701319694519,-1.301931619644165,4.364226341247559
1764808560.297006,1.9757728344678878,5.488272421622276,-0.2798526411037892,-2.4519641399383545,-2.12758469581604,-3.8742525577545166,,,,,,
1764808560.304634,,,,,,,0.710614025592804,0.08261901140213013,0.4197161793708801,-1.5832079648971558,-1.3539106845855713,4.314719200134277
1764808560.307058,1.658025566190481,5.4667164233744145,-0.2811562710482627,-2.382512092590332,-2.331357955932617,-3.828394889831543,,,,,,
1764808560.314665,,,,,,,0.6992968320846558,0.10586035251617432,0.42978692054748535,-1.8676573038101196,-1.3644237518310547,4.27391242980957
1764808560.31711,1.1406856998950243,5.071975347265601,-0.2622936766028404,-2.330277442932129,-2.5378220081329346,-3.79365611076355,,,,,,
1764808560.324695,,,,,,,0.6630098223686218,0.20078808069229126,0.4112398624420166,-1.9487347602844238,-1.3463553190231323,4.241142272949219
1764808560.327162,0.6351648662090301,4.559171370834112,-0.18489231088384986,-2.32346773147583,-2.686904191970825,-3.7845168113708496,,,,,,
1764808560.334725,,,,,,,0.6301392316818237,0.31910109519958496,0.36272627115249634,-1.8413320779800415,-1.3212512731552124,4.21269416809082
1764808560.337214,0.290821559689939,4.300409375488758,-0.2030992178995162,-2.380708932876587,-2.699908971786499,-3.7927896976470947,,,,,,
1764808560.344755,,,,,,,0.6259773969650269,0.40369582176208496,0.29470402002334595,-1.6333948373794556,-1.300797939300537,4.205923557281494
1764808560.347266,0.10460808320492505,4.13663861695826,-0.42896541727185244,-2.4674386978149414,-2.556884527206421,-3.786165952682495,,,,,,
1764808560.354785,,,,,,,0.63222736120224,0.42294368147850037,0.28060388565063477,-1.4662401676177979,-1.2775040864944458,4.194164752960205
1764808560.357318,-0.028626082764565942,4.073242541846633,-0.8333027353741228,-2.534900665283203,-2.2625114917755127,-3.75588321685791,,,,,,
1764808560.364815,,,,,,,0.6138817071914673,0.39716073870658875,0.32553935050964355,-1.4760898351669312,-1.2340329885482788,4.1936259269714355
1764808560.367371,-0.13668576772809027,4.270979867386818,-1.1672786693967878,-2.5525400638580322,-1.8408215045928955,-3.7227442264556885,,,,,,
1764808560.374845,,,,,,,0.5775836706161499,0.3673769235610962,0.35371071100234985,-1.6413662433624268,-1.1452397108078003,4.2034525871276855
1764808560.377423,-0.14222761976420878,4.378419666886329,-1.2693934744812547,-2.5271592140197754,-1.409191608428955,-3.702577829360962,,,,,,
1764808560.384875,,,,,,,0.5360974669456482,0.3487463891506195,0.34909653663635254,-1.7743386030197144,-1.0411990880966187,4.1731486320495605
1764808560.387475,0.10135258854031562,4.193796089941263,-1.196366816715151,-2.487717390060425,-1.090844750404358,-3.703961133956909,,,,,,
1764808560.394905,,,,,,,0.5009090304374695,0.36920151114463806,0.32744693756103516,-1.8207533359527588,-0.9231416583061218,4.106905460357666
1764808560.397527,0.5874401152208447,4.1270524579674,-1.048673332760483,-2.4755725860595703,-0.9310340285301208,-3.71565318107605,,,,,,
1764808560.404935,,,,,,,0.5016912817955017,0.4379861354827881,0.3018507957458496,-1.722326636314392,-0.8220323324203491,4.051084518432617
1764808560.407579,1.186159603216499,4.49968165551126,-1.0068509376838803,-2.513827323913574,-0.8967920541763306,-3.720867872238159,,,,,,
1764808560.414965,,,,,,,0.5571774244308472,0.5088022947311401,0.26094287633895874,-1.529395580291748,-0.7733162045478821,4.004015922546387
1764808560.417631,1.7784961121767757,5.122648134404421,-1.3118930381670593,-2.544556140899658,-0.9353018999099731,-3.6944124698638916,,,,,,
1764808560.424996,,,,,,,0.6314780712127686,0.5444654226303101,0.25706028938293457,-1.3430718183517456,-0.8104411959648132,3.9397947788238525
1764808560.427683,2.300567098647356,5.649172008630633,-1.6486501273408531,-2.5122902393341064,-1.0064588785171509,-3.598738670349121,,,,,,
1764808560.435026,,,,,,,0.6715714335441589,0.5390361547470093,0.2918164134025574,-1.2066570520401,-0.939128577709198,3.8603875637054443
1764808560.437735,2.379511894416064,5.691175167101621,-2.083765299414098,-2.3870677947998047,-1.0500037670135498,-3.451768398284912,,,,,,
1764808560.445056,,,,,,,0.6306100487709045,0.4997502863407135,0.3759898543357849,-1.1569981575012207,-0.9908440113067627,3.7124974727630615
1764808560.447787,1.955031659734249,5.4520823333442205,-2.24031019834429,-2.203951597213745,-1.0300077199935913,-3.299478530883789,,,,,,
1764808560.455086,,,,,,,0.5180221796035767,0.4804151952266693,0.4714106321334839,-1.3041102886199951,-0.9151308536529541,3.5435585975646973
1764808560.45784,1.3232808397524058,5.242377506634592,-2.0960618864074347,-2.0079941749572754,-0.9921392202377319,-3.183928966522217,,,,,,
1764808560.465116,,,,,,,0.4247013330459595,0.49638134241104126,0.5058819055557251,-1.5207957029342651,-0.7374634146690369,3.384709358215332
1764808560.467892,0.8253363596048205,5.046062322852015,-1.8162524268582463,-1.8302751779556274,-0.9761905670166016,-3.1168763637542725,,,,,,
1764808560.475146,,,,,,,0.36672091484069824,0.5091520547866821,0.489013671875,-1.7823245525360107,-0.5228983759880066,3.2402825355529785
1764808560.477944,0.7114622892741114,4.728509700363874,-1.751874354971945,-1.6853440999984741,-0.9658670425415039,-3.088007688522339,,,,,,
1764808560.485176,,,,,,,0.3620777726173401,0.5065497159957886,0.42191600799560547,-1.9012818336486816,-0.47438567876815796,3.093709707260132
1764808560.487996,1.0236087418697775,3.961528133767843,-2.0353885142579675,-1.5662118196487427,-0.9679567813873291,-3.0686745643615723,,,,,,
1764808560.495206,,,,,,,0.35194408893585205,0.4688178300857544,0.36644166707992554,-1.9485783576965332,-0.43804633617401123,2.949404239654541
1764808560.498048,1.5572098610058427,3.2437200556635855,-2.1856740605324507,-1.4937034845352173,-0.95496666431427,-3.054799795150757,,,,,,
1764808560.505236,,,,,,,0.30962157249450684,0.4781191051006317,0.3380492329597473,-1.8542648553848267,-0.33213162422180176,2.9432308673858643
1764808560.5081,2.1031493604503573,3.0020658469855785,-2.313237779650092,-1.46676766872406,-0.8884899020195007,-3.0363051891326904,,,,,,
1764808560.515266,,,,,,,0.2804708480834961,0.4945729672908783,0.2778046727180481,-1.5793195962905884,-0.22421152889728546,2.98341703414917
1764808560.518152,2.514893447677791,2.9900451543241737,-2.5695424449712037,-1.4294195175170898,-0.7550902962684631,-2.9777143001556396,,,,,,
1764808560.525297,,,,,,,0.2695087194442749,0.5425450205802917,0.22463780641555786,-1.1672393083572388,-0.1719352751970291,3.068768262863159
1764808560.528204,2.5771391837105155,2.89251183181107,-2.7020231622248887,-1.3532464504241943,-0.5498533844947815,-2.871812343597412,,,,,,
1764808560.535327,,,,,,,0.2781221270561218,0.5914905667304993,0.15706658363342285,-0.6156914830207825,-0.1723472774028778,3.1186728477478027
