timestamp,phone_accel_x,phone_accel_y,phone_accel_z,phone_gyro_x,phone_gyro_y,phone_gyro_z,watch_accel_x,watch_accel_y,watch_accel_z,watch_gyro_x,watch_gyro_y,watch_gyro_z
1764808566.137922,-0.04914017074406147,0.010852817925810812,0.13625965127050876,,,,,,,,,
1764808566.142153,,,,,,,0.013815879821777344,-0.017203092575073242,-0.001998916268348694,-0.06890904158353806,0.03146630525588989,0.24100258946418762
1764808566.147974,-0.03293780848383903,-0.001626139897108078,0.11109949105083941,-0.09661038219928741,-0.021542226895689964,-0.20936892926692963,,,,,,
1764808566.152184,,,,,,,0.010682940483093262,-0.023590683937072754,0.001367136836051941,-0.08136135339736938,0.024119174107909203,0.2401263266801834
1764808566.158026,-0.02221884607076645,-0.04082242425382137,0.08512216922938823,-0.09882373362779617,-0.034802328795194626,-0.20656846463680267,,,,,,
1764808566.162215,,,,,,,0.005633056163787842,-0.025989532470703125,0.0076160430908203125,-0.11338985711336136,0.012770379893481731,0.23786796629428864
1764808566.168078,-0.0392570746332407,-0.0747317081183195,0.10769757365286349,-0.1057591363787651,-0.04964518919587135,-0.2050352692604065,,,,,,
1764808566.172244,,,,,,,0.005052804946899414,-0.033456504344940186,0.0110243558883667,-0.1503944844007492,0.005065055564045906,0.23610202968120575
1764808566.178131,-0.1102203701287508,-0.1097889929741621,0.14628478620052338,-0.11438581347465515,-0.059422045946121216,-0.21168363094329834,,,,,,
1764808566.182274,,,,,,,0.0055391788482666016,-0.04024261236190796,0.012315914034843445,-0.20409846305847168,0.004597671329975128,0.24019716680049896
1764808566.188183,-0.1811953560620546,-0.07552198171317577,0.15073007517158984,-0.12258489429950714,-0.06469564139842987,-0.22286412119865417,,,,,,
1764808566.192304,,,,,,,0.006584644317626953,-0.03807169198989868,0.011329412460327148,-0.2434549778699875,0.0012146576773375273,0.24731414020061493
1764808566.198235,-0.2216998004078865,-0.05013794960975647,0.1370715521752834,-0.1316841095685959,-0.06601549685001373,-0.23463289439678192,,,,,,
1764808566.202334,,,,,,,0.009891211986541748,-0.03563833236694336,0.012166380882263184,-0.2580717206001282,0.0010324973845854402,0.25046494603157043
1764808566.208287,-0.2003285110771656,-0.0055944590061902996,0.13046177864670752,-0.13452677428722382,-0.06696038693189621,-0.2419171780347824,,,,,,
1764808566.212364,,,,,,,0.011887848377227783,-0.024090290069580078,0.007367417216300964,-0.2478848546743393,0.005387831013649702,0.25713175535202026
1764808566.218339,-0.13573533513545988,0.08353694586455822,0.11406827772855758,-0.13299837708473206,-0.0726824551820755,-0.23692773282527924,,,,,,
1764808566.222394,,,,,,,0.01914668083190918,-0.007005751132965088,0.005496025085449219,-0.20809349417686462,-0.000984580721706152,0.25803402066230774
1764808566.228392,-0.07597966235280036,0.1522474939972162,0.09942132821679114,-0.1253069043159485,-0.07051677256822586,-0.23013348877429962,,,,,,
1764808566.232424,,,,,,,0.023397386074066162,0.0069582462310791016,0.007455110549926758,-0.15546943247318268,-0.003563852282240987,0.2579875588417053
1764808566.238444,-0.03630465456843376,0.18020108432769774,0.08570493755340576,-0.1199202910065651,-0.06062860041856766,-0.22016824781894684,,,,,,
1764808566.242454,,,,,,,0.019446969032287598,0.009622454643249512,0.004934430122375488,-0.09937607496976852,0.005318854935467243,0.25476062297821045
1764808566.248496,-0.036516251492500304,0.15632161156833171,0.06769932983007747,-0.11697269976139069,-0.04710959643125534,-0.21868672966957092,,,,,,
1764808566.252485,,,,,,,0.012766361236572266,0.01086878776550293,0.007074430584907532,-0.06916932761669159,0.01947488635778427,0.25343480706214905
1764808566.258548,-0.07586217345297336,0.1153442890137434,0.03812134860157966,-0.11337008327245712,-0.03062182478606701,-0.2164272516965866,,,,,,
1764808566.262515,,,,,,,0.009497284889221191,0.014803528785705566,0.011065185070037842,-0.03493119031190872,0.029659613966941833,0.25986021757125854
1764808566.2686,-0.09577274258136749,0.09943360317647457,0.006757077611354179,-0.10602428764104843,-0.008620119653642178,-0.21578650176525116,,,,,,
1764808566.272545,,,,,,,0.008162081241607666,0.007728695869445801,0.012720391154289246,-0.016965972259640694,0.029801826924085617,0.2508155405521393
1764808566.278653,-0.11088029534220695,0.08456862699985504,-0.02059270617365837,-0.10610465705394745,0.014166643843054771,-0.212810218334198,,,,,,
1764808566.282575,,,,,,,0.006846964359283447,0.0002535581588745117,0.013281300663948059,-0.019747111946344376,0.02795998379588127,0.24280554056167603
1764808566.288705,-0.12220423791110514,0.031895021432638164,-0.011505719743436203,-0.10921256989240646,0.0322503037750721,-0.21600894629955292,,,,,,
1764808566.292605,,,,,,,0.003045797348022461,-0.0008293390274047852,0.016617879271507263,-0.0227024145424366,0.033704157918691635,0.24997863173484802
1764808566.298757,-0.11484627636373042,-0.015690321084856986,-0.009699547104304656,-0.11268357187509537,0.04452495649456978,-0.21445974707603455,,,,,,
1764808566.302635,,,,,,,0.001054227352142334,0.0014699697494506836,0.015789687633514404,-0.01746317744255066,0.03519339859485626,0.2531054615974426
1764808566.308809,-0.08501753981113433,-0.01772621082663536,-0.02502921818322502,-0.11341354995965958,0.05079163983464241,-0.2167934775352478,,,,,,
1764808566.312665,,,,,,,-0.00026935338973999023,0.0020235776901245117,0.013400137424468994,-0.011103575117886066,0.03374943137168884,0.2552889883518219
1764808566.318861,-0.04546177449226379,-0.0002326397120952606,-0.06244212625450454,-0.11594328284263611,0.05255959928035736,-0.21463875472545624,,,,,,
1764808566.322695,,,,,,,8.130073547363281e-05,0.004063308238983154,0.010253623127937317,-0.00700443796813488,0.03504346311092377,0.2558192312717438
1764808566.328913,-0.006019990941882133,0.04597732279896736,-0.09143909729123115,-0.1133594810962677,0.049873799085617065,-0.2119835913181305,,,,,,
1764808566.332725,,,,,,,0.0009714365005493164,0.008607029914855957,0.01039092242717743,0.00032763159833848476,0.032564856112003326,0.25934991240501404
1764808566.338966,0.0833762023448944,0.03662263447642326,-0.09044539181245491,-0.1096310019493103,0.03920774161815643,-0.20387689769268036,,,,,,
1764808566.342755,,,,,,,0.002458631992340088,0.011249542236328125,0.011999830603599548,0.0033441942650824785,0.026369811967015266,0.25438418984413147
1764808566.349018,0.15057693043649195,0.015574001228809356,-0.06425650046640076,-0.108895443379879,0.024556363001465797,-0.19803473353385925,,,,,,
1764808566.352785,,,,,,,-0.00021201372146606445,0.012918293476104736,0.011945798993110657,-0.002430899068713188,0.026702439412474632,0.24518035352230072
1764808566.35907,0.15959814902096986,-0.011681085443496704,-0.04374329840289429,-0.11733627319335938,0.0009880878496915102,-0.19320398569107056,,,,,,
1764808566.362816,,,,,,,-0.0004904270172119141,0.013783693313598633,0.011439085006713867,-0.005800862796604633,0.027612974867224693,0.24222956597805023
1764808566.369122,0.12444938648939131,-0.042948914888501166,-0.0455225647687912,-0.13350938260555267,-0.02255079336464405,-0.18621744215488434,,,,,,
1764808566.372846,,,,,,,-0.00030624866485595703,0.015701889991760254,0.012925922870635986,0.0005531157366931438,0.025887247174978256,0.23925042152404785
1764808566.379174,0.10779080489426851,-0.055229719790816305,-0.060500371936429286,-0.14211341738700867,-0.043024614453315735,-0.17726559937000275,,,,,,
1764808566.382876,,,,,,,0.0016446709632873535,0.020742714405059814,0.014921560883522034,0.02473009191453457,0.018553433939814568,0.23222553730010986
1764808566.389227,0.08128302945792674,0.0076326868355274195,-0.09909050709353759,-0.13629202544689178,-0.03849830850958824,-0.16334737837314606,,,,,,
1764808566.392906,,,,,,,0.006871938705444336,0.021367967128753662,0.013620689511299133,0.05366509035229683,0.009692830964922905,0.2185167819261551
1764808566.399279,0.0048871875196695325,0.11131517962813377,-0.15490531502962113,-0.12486214935779572,-0.017141589894890785,-0.1610126942396164,,,,,,
1764808566.402936,,,,,,,0.011116325855255127,0.013367891311645508,0.01622873544692993,0.05329570919275284,0.006942850537598133,0.2090897262096405
1764808566.409331,-0.06408873355090618,0.18641689010262488,-0.18000704132663084,-0.12279874086380005,-0.0010150830494239926,-0.16636298596858978,,,,,,
1764808566.412966,,,,,,,0.014971613883972168,0.008230507373809814,0.021975398063659668,0.018954696133732796,0.006272266618907452,0.21160654723644257
1764808566.419383,-0.06993745957911014,0.22592530914843081,-0.12015079424632713,-0.1200428456068039,-0.0019234331557527184,-0.17209279537200928,,,,,,
1764808566.422996,,,,,,,0.017654478549957275,0.0006996989250183105,0.025604799389839172,-0.023408472537994385,0.003766498528420925,0.2116084098815918
1764808566.429435,-0.04458382261395454,0.203949624183774,-0.11672551423907279,-0.10523513704538345,-0.020063553005456924,-0.1768856793642044,,,,,,
1764808566.433026,,,,,,,0.015220582485198975,-0.004455983638763428,0.03330717980861664,-0.06407985836267471,-0.002438666531816125,0.20034976303577423
1764808566.439488,0.022802783438563345,0.15613748717308043,-0.1133177150895819,-0.08823484927415848,-0.047370489686727524,-0.1759563386440277,,,,,,
1764808566.443056,,,,,,,0.007006227970123291,-0.007646322250366211,0.032599449157714844,-0.08294861763715744,-0.0020977819804102182,0.18978101015090942
1764808566.44954,0.06786679078489542,0.07539747855067253,-0.07763035216927527,-0.07624635845422745,-0.08021418750286102,-0.17177250981330872,,,,,,
1764808566.453086,,,,,,,-0.0033155083656311035,-0.00907278060913086,0.025713860988616943,-0.08633981645107269,0.0112846028059721,0.17690108716487885
1764808566.459592,0.08365268119871616,-0.004382160606980323,-0.005894282202981412,-0.07227005064487457,-0.11371958255767822,-0.16078540682792664,,,,,,
1764808566.463117,,,,,,,-0.007870912551879883,-0.001408994197845459,0.01734614372253418,-0.07824434340000153,0.02457244321703911,0.1678231656551361
1764808566.469644,0.055229135268926616,-0.04444295283854007,0.02222702937722206,-0.06421825289726257,-0.12764659523963928,-0.15139244496822357,,,,,,
1764808566.473147,,,,,,,-0.00653308629989624,0.005751371383666992,0.013035759329795837,-0.054646581411361694,0.024374570697546005,0.16417597234249115
1764808566.479696,-0.03385316976308823,-0.05345394228994846,-0.02282791787981987,-0.06108812987804413,-0.11212880909442902,-0.14438080787658691,,,,,,
1764808566.483177,,,,,,,-0.002691328525543213,-0.0009057521820068359,0.008597791194915771,-0.036610059440135956,0.019755318760871887,0.15568847954273224
1764808566.489749,-0.14058978942930697,-0.07503156784772873,-0.06161562143564224,-0.0625494047999382,-0.0764927789568901,-0.13940203189849854,,,,,,
1764808566.493207,,,,,,,-0.0029485225677490234,-0.006096899509429932,0.007842585444450378,-0.03682906925678253,0.01843918301165104,0.15741653740406036
1764808566.499801,-0.2389820668593049,-0.08609306008815765,-0.047758963785041124,-0.07273445278406143,-0.03483099490404129,-0.1382821947336197,,,,,,
1764808566.503237,,,,,,,-0.0017504692077636719,-0.011292755603790283,0.008102819323539734,-0.035794697701931,0.018050095066428185,0.1570170670747757
1764808566.509853,-0.2982324204683304,-0.08983692279160022,-0.059208523761294776,-0.07800910621881485,0.0033361001405864954,-0.1366022676229477,,,,,,
1764808566.513267,,,,,,,-0.004192352294921875,-0.006341040134429932,0.010400891304016113,-0.03309694305062294,0.02037343755364418,0.15822568535804749
1764808566.519905,-0.2768921107977629,-0.06728489924371242,-0.06325463908063247,-0.0775877982378006,0.027338219806551933,-0.1330447793006897,,,,,,
1764808566.523297,,,,,,,-0.0027129650115966797,-0.00027185678482055664,0.01126253604888916,-0.02020564302802086,0.01921922340989113,0.1607452929019928
1764808566.529957,-0.21787001298665998,-0.036734862679243085,-0.06934767699241638,-0.07374086230993271,0.03567178174853325,-0.12753762304782867,,,,,,
1764808566.533327,,,,,,,-0.0018312931060791016,-0.00564044713973999,0.015050292015075684,-0.014534002169966698,0.010127458721399307,0.15495644509792328
1764808566.54001,-0.1450327403128147,-0.015378770917654036,-0.0633516514480114,-0.06682298332452774,0.034288763999938965,-0.12451314926147461,,,,,,
1764808566.543357,,,,,,,0.0017844438552856445,-0.013952672481536865,0.016468167304992676,-0.03153642266988754,0.009092820808291435,0.1460590958595276
1764808566.550062,-0.09624620531201362,-0.021575287470221517,-0.045550658352114255,-0.06465943157672882,0.02018306404352188,-0.12894997000694275,,,,,,
1764808566.553387,,,,,,,0.002150595188140869,-0.02076137065887451,0.018920719623565674,-0.051757823675870895,0.01610971800982952,0.1445244550704956
1764808566.560114,-0.05288403344750404,0.00416881011724472,-0.020600962545350193,-0.05935079604387283,0.005104442127048969,-0.135819673538208,,,,,,
1764808566.563417,,,,,,,0.0027388930320739746,-0.018633246421813965,0.02091038227081299,-0.06948648393154144,0.02764786221086979,0.15074558556079865
1764808566.570166,-0.005309212324023246,0.04856909285783768,-0.02812953141927719,-0.05283217132091522,-0.009526166133582592,-0.14213137328624725,,,,,,
1764808566.573448,,,,,,,0.005302131175994873,-0.014964461326599121,0.021176710724830627,-0.07502702623605728,0.03709782287478447,0.15571078658103943
1764808566.580218,0.02783464012593031,0.07208966917693614,-0.0421019426703453,-0.04433508962392807,-0.02364266850054264,-0.14764007925987244,,,,,,
1764808566.583478,,,,,,,0.009099781513214111,-0.019705533981323242,0.020842328667640686,-0.08131740987300873,0.03790582716464996,0.15709030628204346
1764808566.59027,0.029756255838274955,0.060095280000567436,-0.04959317520856857,-0.04200322926044464,-0.040637098252773285,-0.15061509609222412,,,,,,
1764808566.593508,,,,,,,0.010325908660888672,-0.022054433822631836,0.022794559597969055,-0.09398651123046875,0.038631539791822433,0.1600112020969391
1764808566.600323,-0.004852408467233181,0.04008884928226471,-0.05041501298546791,-0.042132336646318436,-0.05395752936601639,-0.1573493927717209,,,,,,
1764808566.603538,,,,,,,0.011543214321136475,-0.020984351634979248,0.019898422062397003,-0.10496991872787476,0.03630660101771355,0.16189804673194885
1764808566.610375,-0.07001257064193486,0.034308512315154076,-0.03963995473729446,-0.045267410576343536,-0.06094220280647278,-0.16523820161819458,,,,,,
1764808566.613568,,,,,,,0.011583030223846436,-0.021940290927886963,0.01655007153749466,-0.11962057650089264,0.038820624351501465,0.16768956184387207
1764808566.620427,-0.14998217941373584,0.035656419792771336,-0.017570728003978728,-0.04807762801647186,-0.05668024718761444,-0.17335368692874908,,,,,,
1764808566.623598,,,,,,,0.011094987392425537,-0.021759450435638428,0.015293776988983154,-0.1330985575914383,0.03759077563881874,0.16942167282104492
1764808566.630479,-0.17817074754387138,0.034489714100956914,-0.027813889598846436,-0.049552492797374725,-0.04860927164554596,-0.17707572877407074,,,,,,
1764808566.633628,,,,,,,0.009819328784942627,-0.026420235633850098,0.01753157377243042,-0.15556399524211884,0.0314902700483799,0.16981302201747894
1764808566.640531,-0.1725572915762663,0.012277882292866707,-0.020279365908168256,-0.052382469177246094,-0.04559842497110367,-0.1803007870912552,,,,,,
1764808566.643658,,,,,,,0.008661031723022461,-0.02897036075592041,0.017004430294036865,-0.17541199922561646,0.02584783174097538,0.16711977124214172
1764808566.650584,-0.17380846068114042,-0.024113281515240666,0.016681085687875748,-0.058881647884845734,-0.04705890268087387,-0.18488621711730957,,,,,,
1764808566.653688,,,,,,,0.008496344089508057,-0.02466869354248047,0.017736852169036865,-0.18319383263587952,0.03017253801226616,0.17272067070007324
1764808566.660636,-0.17488164287060498,-0.03429565283358097,0.022161562925577163,-0.056178752332925797,-0.05146324634552002,-0.18733781576156616,,,,,,
1764808566.663718,,,,,,,0.008039653301239014,-0.0229528546333313,0.013396427035331726,-0.19419188797473907,0.02248026430606842,0.1782246232032776
1764808566.670688,-0.16692162377685307,-0.023157003703713416,-0.00619238836672157,-0.05800275132060051,-0.05730781704187393,-0.19017860293388367,,,,,,
1764808566.673749,,,,,,,0.004583895206451416,-0.026632308959960938,0.009691834449768066,-0.19768373668193817,0.021615270525217056,0.1739877313375473
1764808566.68074,-0.15118717128932474,-0.045429041266441345,0.020690905851125718,-0.0580415278673172,-0.06013398990035057,-0.19007259607315063,,,,,,
1764808566.683779,,,,,,,0.0030395984649658203,-0.03112119436264038,0.017238721251487732,-0.21095134317874908,0.027545597404241562,0.1808677315711975
1764808566.690792,-0.16202712973356245,-0.06327975525557994,0.04296703506708145,-0.057829540222883224,-0.05411924049258232,-0.19378238916397095,,,,,,
1764808566.693809,,,,,,,0.0025788545608520508,-0.0329899787902832,0.019600093364715576,-0.2220727652311325,0.03656332939863205,0.18911854922771454
1764808566.700845,-0.21687135733813045,-0.029371055912971494,0.03657126961536705,-0.0538664348423481,-0.04124470800161362,-0.20216061174869537,,,,,,
1764808566.703839,,,,,,,0.0013838410377502441,-0.035917818546295166,0.01705361157655716,-0.23249638080596924,0.047664716839790344,0.19365312159061432
1764808566.710897,-0.26866291937381026,0.001928337714076042,0.03278930339124053,-0.05052443593740463,-0.03428640216588974,-0.21508120000362396,,,,,,
1764808566.713869,,,,,,,0.005313575267791748,-0.037035584449768066,0.01124609261751175,-0.2364785075187683,0.054702650755643845,0.20172162353992462
1764808566.720949,-0.2836447999283671,-0.020876199290156362,0.05041384394168853,-0.05659255385398865,-0.02867615781724453,-0.2281820923089981,,,,,,
1764808566.723899,,,,,,,0.008232176303863525,-0.034075915813446045,0.014431774616241455,-0.22930927574634552,0.05947317183017731,0.2137172967195511
1764808566.731001,-0.24584786097556352,-0.024417232897877693,0.0825053012618795,-0.062250711023807526,-0.02188429795205593,-0.24184198677539825,,,,,,
1764808566.733929,,,,,,,0.008861422538757324,-0.03425568342208862,0.01361614465713501,-0.20547136664390564,0.06087159737944603,0.22293083369731903
1764808566.741053,-0.23295915330797431,-0.05836041903197765,0.09033201283216476,-0.06834726780653,-0.021057287231087685,-0.25166934728622437,,,,,,
1764808566.743959,,,,,,,0.007169961929321289,-0.03635060787200928,0.010187327861785889,-0.17079700529575348,0.06475049257278442,0.23040339350700378
1764808566.751106,-0.19692367106974124,-0.06397241369485855,0.06028400750569999,-0.07420489192008972,-0.025392914190888405,-0.2640061676502228,,,,,,
1764808566.753989,,,,,,,0.002318441867828369,-0.026378214359283447,0.004464931786060333,-0.1244748905301094,0.07483001798391342,0.2465137243270874
1764808566.761158,-0.15778203950971365,-0.07306582073271274,0.04327916975617409,-0.07641381770372391,-0.03413199633359909,-0.2700902819633484,,,,,,
1764808566.764019,,,,,,,0.0009902119636535645,-0.015105485916137695,-0.0034446194767951965,-0.0708010122179985,0.07814086228609085,0.26756417751312256
1764808566.77121,-0.08147153776735067,-0.03490706273019314,0.050996027743816376,-0.07445240020751953,-0.037045758217573166,-0.2683110237121582,,,,,,
1764808566.774049,,,,,,,0.004052340984344482,-0.01153653860092163,-0.00015789270401000977,-0.041255224496126175,0.0707753598690033,0.27996769547462463
1764808566.781262,-0.040810441555082795,-0.056876902475953096,0.012190751998685299,-0.07436814159154892,-0.023187074810266495,-0.2651863694190979,,,,,,
1764808566.78408,,,,,,,0.0017897486686706543,-0.015993237495422363,0.0034301355481147766,-0.033005814999341965,0.07447502017021179,0.28956466913223267
1764808566.791314,-0.05519084908515215,-0.0874368759125471,0.018089783442020415,-0.07374629378318787,-0.004204861354082823,-0.26297035813331604,,,,,,
1764808566.79411,,,,,,,-0.0035538077354431152,-0.023274719715118408,0.005316674709320068,-0.042393989861011505,0.08821053802967072,0.29563453793525696
1764808566.801367,-0.12673954325318335,-0.09130465725660324,0.0218505972802639,-0.07703524827957153,0.010667044669389725,-0.2727406322956085,,,,,,
1764808566.80414,,,,,,,-0.007201433181762695,-0.020069539546966553,0.003191828727722168,-0.04995470494031906,0.10296844691038132,0.29754963517189026
1764808566.811419,-0.16035598165094853,-0.09716916537582873,0.05034958306644111,-0.07230360805988312,0.019949492067098618,-0.2796776294708252,,,,,,
1764808566.81417,,,,,,,-0.008464157581329346,-0.010224401950836182,-0.0007962062954902649,-0.03851410374045372,0.11122690886259079,0.28636401891708374
1764808566.821471,-0.10475918211340904,-0.09368424586951732,0.0769020744273439,-0.06700205057859421,0.019046412780880928,-0.28063076734542847,,,,,,
1764808566.8242,,,,,,,-0.005834639072418213,-0.005259811878204346,-0.0016486644744873047,-0.029528068378567696,0.09861870855093002,0.26775968074798584
1764808566.831523,-0.03982493764907121,-0.09765957924127579,0.09009115328099578,-0.05981317162513733,0.01740296185016632,-0.2733295261859894,,,,,,
1764808566.83423,,,,,,,-0.0040465593338012695,0.0028415918350219727,0.0021048784255981445,-0.024377917870879173,0.09489454329013824,0.25847557187080383
1764808566.841576,-0.011426526160538197,-0.09740940387248992,0.053071080452203746,-0.04876504838466644,0.024612100794911385,-0.25815290212631226,,,,,,
1764808566.84426,,,,,,,-0.008341431617736816,0.006266951560974121,0.0012884661555290222,-0.02038131281733513,0.10299374908208847,0.24905145168304443
1764808566.851628,-0.009679390232264995,-0.07214929040968418,-0.016325696378946302,-0.03970737010240555,0.0391409769654274,-0.2454456090927124,,,,,,
1764808566.85429,,,,,,,-0.013347327709197998,0.007852017879486084,-0.0022658705711364746,-0.013662093318998814,0.11112650483846664,0.24436801671981812
1764808566.86168,-0.0015524901390075682,-0.07301730541586876,-0.04593289913535118,-0.03370444104075432,0.05980878695845604,-0.23657874763011932,,,,,,
1764808566.86432,,,,,,,-0.014301598072052002,0.00930696725845337,-0.0024097636342048645,-0.00600017886608839,0.10983940213918686,0.23973092436790466
1764808566.871732,-0.0026285949379205704,-0.11207914973795413,-0.03750171886589378,-0.032976601272821426,0.08296630531549454,-0.23229824006557465,,,,,,
1764808566.87435,,,,,,,-0.014439582824707031,0.01117098331451416,-0.004013709723949432,0.0014834310859441757,0.10119691491127014,0.2280401885509491
1764808566.881784,0.019901509039103985,-0.155664608964324,-0.035056115812063214,-0.03789710998535156,0.10732223093509674,-0.22553947567939758,,,,,,
1764808566.88438,,,,,,,-0.014184772968292236,0.01392275094985962,-0.006129443645477295,0.01691138930618763,0.08933413028717041,0.19915154576301575
1764808566.891837,0.05552841047644615,-0.19170681320428848,-0.05609660228583961,-0.04082898423075676,0.13061849772930145,-0.219193696975708,,,,,,
1764808566.894411,,,,,,,-0.015918433666229248,0.020354747772216797,-0.012240402400493622,0.0282075647264719,0.11463601887226105,0.21200215816497803
1764808566.901889,0.11114099210500716,-0.1749620146304369,-0.0715595078229904,-0.04503060132265091,0.14590410888195038,-0.20878861844539642,,,,,,
1764808566.904441,,,,,,,-0.013779163360595703,0.024370849132537842,-0.01606035977602005,0.017687812447547913,0.1404987871646881,0.25481459498405457
1764808566.911941,0.15462795939296484,-0.14497487264573572,-0.029383878861926494,-0.05118463188409805,0.15393833816051483,-0.20462875068187714,,,,,,
1764808566.914471,,,,,,,-0.011537253856658936,0.007543087005615234,-0.008164353668689728,-0.016293194144964218,0.13742682337760925,0.2376004010438919
1764808566.921993,0.1870084262549877,-0.14982406624257563,-0.04896426618788391,-0.04995052516460419,0.15130376815795898,-0.2115182727575302,,,,,,
1764808566.924501,,,,,,,-0.01280754804611206,-0.006666749715805054,-0.0002490803599357605,0.004507158882915974,0.12662158906459808,0.23014913499355316
1764808566.932045,0.20751608449369668,-0.14037468537390232,-0.12406948379371315,-0.04323216900229454,0.13634638488292694,-0.21628080308437347,,,,,,
1764808566.934531,,,,,,,-0.011464595794677734,0.0022394657135009766,0.0027387067675590515,0.030170075595378876,0.1270173341035843,0.2654632031917572
1764808566.942098,0.24936639049053191,-0.11548282070159911,-0.1574713661253452,-0.03459223359823227,0.11613211035728455,-0.21573367714881897,,,,,,
1764808566.944561,,,,,,,-0.01163548231124878,0.011321604251861572,0.012860946357250214,0.04932859167456627,0.13751764595508575,0.2832416594028473
1764808566.95215,0.25072540388405323,-0.08727204073965548,-0.1893571082729846,-0.0300225168466568,0.10456067323684692,-0.21750494837760925,,,,,,
1764808566.954591,,,,,,,-0.016963303089141846,0.004437804222106934,0.017132513225078583,0.04046320170164108,0.130553737282753,0.2887592613697052
1764808566.962202,0.18615356299132108,-0.11543722799420356,-0.2239385192453861,-0.03518393635749817,0.10014504939317703,-0.22203947603702545,,,,,,
1764808566.964621,,,,,,,-0.01411658525466919,-0.006558537483215332,0.012645125389099121,-0.02093038335442543,0.13245923817157745,0.2921404242515564
1764808566.972254,0.0858098592326045,-0.17932079436182974,-0.167370755783841,-0.04245596379041672,0.09793036431074142,-0.22744914889335632,,,,,,
1764808566.974651,,,,,,,-0.01316821575164795,-0.01887229084968567,0.018390409648418427,-0.1700594574213028,0.10662656277418137,0.3068660795688629
1764808566.982306,0.033520869068801404,-0.20401509063541887,-0.09796243464536965,-0.0475180484354496,0.10517220199108124,-0.23598533868789673,,,,,,
1764808566.984681,,,,,,,-0.012429475784301758,-0.035239964723587036,0.02572387456893921,-0.3061363101005554,0.08993946760892868,0.3072298765182495
1764808566.992359,-0.009298866482079029,-0.21005846245288848,-0.11467387893889099,-0.05063208192586899,0.1096753403544426,-0.2503400444984436,,,,,,
1764808566.994712,,,,,,,-0.0151558518409729,-0.039851993322372437,0.02013707160949707,-0.4282408058643341,0.08746698498725891,0.3038954436779022
1764808567.002411,-0.06185235280096531,-0.20405659168958662,-0.11278353514764457,-0.058367762714624405,0.10460378974676132,-0.2678035497665405,,,,,,
1764808567.004742,,,,,,,-0.01783996820449829,-0.03337547183036804,0.016206510365009308,-0.49728405475616455,0.0720299705862999,0.3027194142341614
1764808567.012463,-0.01437777718156576,-0.22192776394486427,-0.10537994436025619,-0.07255282998085022,0.08986213058233261,-0.28391221165657043,,,,,,
1764808567.014773,,,,,,,-0.01562511920928955,-0.02081167697906494,0.010854899883270264,-0.4993048310279846,0.06623626500368118,0.30295905470848083
1764808567.022515,0.09444412432610988,-0.17182722373604772,-0.12282558467984199,-0.07713889330625534,0.06401442736387253,-0.2873452603816986,,,,,,
1764808567.024803,,,,,,,-0.012394130229949951,0.017268121242523193,0.0018039382994174957,-0.44077467918395996,0.07039079815149307,0.3045862317085266
1764808567.032567,0.23275837003886699,-0.06953764660656452,-0.15028751903586088,-0.0696018859744072,0.03949470445513725,-0.27497753500938416,,,,,,
1764808567.034833,,,,,,,-0.007889747619628906,0.05346953868865967,-0.008213695138692856,-0.3638087511062622,0.0662383958697319,0.3022995591163635
1764808567.04262,0.3158969642356038,0.046676410979032516,-0.23817981056571005,-0.0620262548327446,0.03943508490920067,-0.2563447952270508,,,,,,
1764808567.044863,,,,,,,-0.0010868310928344727,0.06175622344017029,-0.0023387670516967773,-0.33707645535469055,0.05436895787715912,0.2922447919845581
1764808567.052672,0.38161709838062524,0.16906828041672706,-0.2941233046490699,-0.055571816861629486,0.06783716380596161,-0.2438761442899704,,,,,,
1764808567.054893,,,,,,,-0.0015146732330322266,0.06314447522163391,0.011946074664592743,-0.3944191038608551,0.057479795068502426,0.2729318141937256
1764808567.062724,0.4130594076097011,0.2691173851430416,-0.3950397667944431,-0.02632668800652027,0.11702845990657806,-0.2400052696466446,,,,,,
1764808567.064923,,,,,,,-0.0025505423545837402,0.06936311721801758,0.019919931888580322,-0.48009565472602844,0.06773295998573303,0.24011342227458954
1764808567.072776,0.4535772959589958,0.3233545867651701,-0.5507458768129349,0.02218465507030487,0.1678660809993744,-0.231455996632576,,,,,,
1764808567.074953,,,,,,,-0.011131048202514648,0.07983031868934631,0.022918343544006348,-0.5578525066375732,0.09269051253795624,0.19880327582359314
1764808567.082829,0.6378229795023799,0.3185182526499033,-0.5401764789383858,0.06862533837556839,0.18781700730323792,-0.20033201575279236,,,,,,
1764808567.084983,,,,,,,-0.02374333143234253,0.10505801439285278,0.018326286226511,-0.6070139408111572,0.12483246624469757,0.15004505217075348
1764808567.092881,0.8430150049626827,0.2609557059973478,-0.39873748880121856,0.0974026545882225,0.16246397793293,-0.15164943039417267,,,,,,
1764808567.095013,,,,,,,-0.03215736150741577,0.14137178659439087,0.005386475473642349,-0.6172606945037842,0.1489812135696411,0.07157181203365326
1764808567.102933,0.9917328635290265,0.17902444176375865,-0.316990823886916,0.12412182986736298,0.10675571858882904,-0.10126306116580963,,,,,,
1764808567.105044,,,,,,,-0.0270230770111084,0.18225258588790894,-0.007839379832148552,-0.5769212245941162,0.15206915140151978,-0.01734720915555954
1764808567.112985,1.0935483934059738,0.18625322397351263,-0.370904857969284,0.1575266569852829,0.07170745730400085,-0.05298581346869469,,,,,,
1764808567.115074,,,,,,,-0.0171968936920166,0.21513211727142334,-0.015313981100916862,-0.5155382752418518,0.13284726440906525,-0.08918025344610214
1764808567.123037,1.2255591550603508,0.3026525749981403,-0.5347661443274467,0.20731647312641144,0.08471323549747467,-0.00040184904355555773,,,,,,
1764808567.125104,,,,,,,-0.01600778102874756,0.23608121275901794,-0.0068352799862623215,-0.4635627269744873,0.12520824372768402,-0.15402236580848694
1764808567.13309,1.3898679659903048,0.4134703264981508,-0.7556219681918621,0.2745876610279083,0.1288418173789978,0.0625467598438263,,,,,,
1764808567.135134,,,,,,,-0.031424760818481445,0.2416922152042389,0.0013968981802463531,-0.42119649052619934,0.14341893792152405,-0.2246382236480713
1764808567.143142,1.533810865239799,0.4546124842256307,-0.8654641526579856,0.34202954173088074,0.1843206137418747,0.12859217822551727,,,,,,
1764808567.145164,,,,,,,-0.04661691188812256,0.2419147491455078,0.004312040284276009,-0.4226974546909332,0.161281555891037,-0.3086255192756653
1764808567.153194,1.6746981763109563,0.42167993643879886,-0.8592552880804986,0.41427603363990784,0.22483821213245392,0.2031676173210144,,,,,,
1764808567.155194,,,,,,,-0.052288711071014404,0.263142853975296,-0.001326022669672966,-0.418658971786499,0.17521148920059204,-0.39223289489746094
1764808567.163246,1.7924755376905201,0.27894495167434213,-0.7692974423229694,0.4622240960597992,0.23826025426387787,0.2864656448364258,,,,,,
1764808567.165224,,,,,,,-0.05423247814178467,0.2918555438518524,-0.023167312145233154,-0.36924055218696594,0.17980331182479858,-0.4766806662082672
1764808567.173298,1.8808751211553811,0.15000059185326098,-0.6090285544335842,0.48709404468536377,0.23309293389320374,0.36658549308776855,,,,,,
1764808567.175254,,,,,,,-0.05092555284500122,0.31672781705856323,-0.044037818908691406,-0.3629598021507263,0.1893875002861023,-0.5843579769134521
1764808567.183351,1.968961693148315,0.2194377006947994,-0.6136579677999019,0.5182307362556458,0.2357042133808136,0.4377729296684265,,,,,,
1764808567.185284,,,,,,,-0.04061281681060791,0.3370601236820221,-0.035887300968170166,-0.4639274477958679,0.18514135479927063,-0.6765027642250061
1764808567.193403,2.1665090490743517,0.553753826457262,-0.8108592867672443,0.5961609482765198,0.25590723752975464,0.4979734420776367,,,,,,
1764808567.195314,,,,,,,-0.02654498815536499,0.32789847254753113,-0.004438877105712891,-0.6243053674697876,0.15232588350772858,-0.7664386630058289
1764808567.203455,2.425634032513201,0.8907090685516595,-1.0729179855704307,0.7330900430679321,0.2601911723613739,0.5650531053543091,,,,,,
1764808567.205344,,,,,,,-0.021151363849639893,0.31265705823898315,0.023322105407714844,-0.7553070783615112,0.15121614933013916,-0.8445678353309631
1764808567.213507,2.7027272188410163,0.9255606017023325,-1.1793301955878734,0.8490696549415588,0.2099173665046692,0.6413918733596802,,,,,,
1764808567.215375,,,,,,,-0.027342379093170166,0.32641202211380005,0.011175869964063168,-0.8195006847381592,0.18946179747581482,-0.9010321497917175
1764808567.224188,3.244105255588889,-0.060462359747290605,-0.6895254019498824,0.8841863870620728,0.10600829124450684,0.7271541953086853,,,,,,
1764808567.225405,,,,,,,-0.040412962436676025,0.3597103953361511,-0.022469758987426758,-0.8054527640342712,0.19367438554763794,-1.0186823606491089
1764808567.23424,3.3909333548858758,-0.4473252498269081,-0.6867091754853725,0.8435356020927429,0.0030307755805552006,0.8073680996894836,,,,,,
1764808567.235435,,,,,,,-0.05126965045928955,0.4129791259765625,-0.05990278720855713,-0.7281988263130188,0.1818329095840454,-1.1614633798599243
1764808567.244292,3.5545229116305705,-0.2698351780235767,-1.0159691869020462,0.8010688424110413,-0.0504118986427784,0.8951553106307983,,,,,,
1764808567.245465,,,,,,,-0.04626554250717163,0.48470109701156616,-0.09557759761810303,-0.6113068461418152,0.1870332658290863,-1.2484067678451538
1764808567.254345,3.743137604038417,0.27702888891994953,-1.440161398422718,0.7854049205780029,-0.023372560739517212,0.997103750705719,,,,,,
1764808567.255495,,,,,,,-0.03268897533416748,0.5202968120574951,-0.1026909351348877,-0.5712835788726807,0.18229976296424866,-1.2970647811889648
1764808567.264397,3.875795139163732,0.5894815579205751,-1.7806962525695562,0.8333195447921753,0.06110972538590431,1.1228501796722412,,,,,,
1764808567.265525,,,,,,,-0.03170686960220337,0.4997074604034424,-0.04612648859620094,-0.5913105607032776,0.15552407503128052,-1.3907320499420166
1764808567.274449,3.8923888388291,0.5747451765596866,-1.8457389258444308,0.9334861040115356,0.12079143524169922,1.2639460563659668,,,,,,
1764808567.275555,,,,,,,-0.04691094160079956,0.48050785064697266,0.023117899894714355,-0.5989167094230652,0.16140486299991608,-1.5246647596359253
1764808567.284501,3.898979615396261,0.44198505784273145,-1.6061211914300917,1.018352746963501,0.0951707512140274,1.4052348136901855,,,,,,
1764808567.285585,,,,,,,-0.06820416450500488,0.5257730484008789,0.0561295785009861,-0.5120592713356018,0.21670646965503693,-1.7084567546844482
1764808567.294554,3.989855818107724,0.4446703514039516,-1.4908797782689331,1.1022363901138306,0.022836096584796906,1.551878809928894,,,,,,
1764808567.295615,,,,,,,-0.08516865968704224,0.6340106129646301,0.05791712552309036,-0.36069005727767944,0.28485995531082153,-1.9357672929763794
1764808567.304606,4.139513295611739,0.6409411115229129,-1.579773867252469,1.181339979171753,0.0019816982094198465,1.7023404836654663,,,,,,
1764808567.305645,,,,,,,-0.08210933208465576,0.7342038154602051,0.025855310261249542,-0.1886535882949829,0.347025603055954,-2.176809549331665
1764808567.314658,4.338473733206093,1.0093874704241752,-1.6660820313960312,1.2607526779174805,0.06624963134527206,1.8813443183898926,,,,,,
1764808567.315675,,,,,,,-0.060621559619903564,0.7652875781059265,0.008744001388549805,-0.102982297539711,0.4342536926269531,-2.381033420562744
1764808567.32471,4.49035560876131,1.2758499571442603,-1.7373329116612672,1.340167760848999,0.18900346755981445,2.1013267040252686,,,,,,
1764808567.325706,,,,,,,-0.0171547532081604,0.7480065822601318,0.023548483848571777,-0.09805092215538025,0.49041125178337097,-2.5609371662139893
1764808567.334762,4.461678380331397,1.3852397216677665,-1.777898730805516,1.4208452701568604,0.31210756301879883,2.3221471309661865,,,,,,
1764808567.335736,,,,,,,0.03177064657211304,0.7235268354415894,0.049094803631305695,-0.1582227647304535,0.5293565392494202,-2.763437509536743
1764808567.344815,4.368348354727029,1.556108914026618,-1.7015408827900886,1.5004204511642456,0.3759583532810211,2.517683506011963,,,,,,
1764808567.345766,,,,,,,0.07471132278442383,0.7173209190368652,0.07147085666656494,-0.222235307097435,0.5877330303192139,-2.951409101486206
1764808567.354867,4.302924573180079,1.6772312019199132,-1.5961773050427437,1.5699830055236816,0.3727649450302124,2.6739723682403564,,,,,,
1764808567.355796,,,,,,,0.10912364721298218,0.7095511555671692,0.08603943139314651,-0.22293388843536377,0.6434617638587952,-3.1380271911621094
1764808567.364919,4.34673215072453,1.8468343198657036,-1.5846797594726085,1.6346193552017212,0.34729740023612976,2.800114870071411,,,,,,
1764808567.365826,,,,,,,0.13604015111923218,0.7030565142631531,0.09928929805755615,-0.18946833908557892,0.7221230268478394,-3.3234219551086426
1764808567.374971,4.382163529589772,2.132831528139114,-1.6107915213286876,1.7121862173080444,0.3255510926246643,2.939595937728882,,,,,,
1764808567.375856,,,,,,,0.16135549545288086,0.7038156390190125,0.11488962173461914,-0.11796259135007858,0.805819034576416,-3.495946168899536
1764808567.385023,4.3125095631271595,2.4559821167647837,-1.6667542315691708,1.7854716777801514,0.32186654210090637,3.1033573150634766,,,,,,
1764808567.385886,,,,,,,0.19590824842453003,0.7054910659790039,0.12572228908538818,-0.050277821719646454,0.8666692972183228,-3.656831979751587
1764808567.395076,4.163632422345876,2.768169997349381,-1.6955454417675733,1.8664637804031372,0.3528289794921875,3.275909662246704,,,,,,
1764808567.395916,,,,,,,0.24138551950454712,0.7011966705322266,0.14322781562805176,0.01971064694225788,0.9506193399429321,-3.8073196411132812
1764808567.405128,3.940791050687432,3.0164877555698153,-1.6024204372160136,1.9498649835586548,0.3871705234050751,3.4605212211608887,,,,,,
1764808567.405946,,,,,,,0.28641968965530396,0.7051916718482971,0.16869185864925385,0.1064644530415535,1.0390915870666504,-3.9599452018737793
1764808567.41518,3.6479192804694174,3.2183208259910345,-1.539714097934216,2.032543897628784,0.4184666574001312,3.6418888568878174,,,,,,
1764808567.415976,,,,,,,0.32892441749572754,0.7116959691047668,0.19301140308380127,0.20770671963691711,1.108909010887146,-4.1186909675598145
1764808567.425232,3.2752836531847715,3.382708839637041,-1.5800472773663699,2.104308605194092,0.4648803174495697,3.803068161010742,,,,,,
1764808567.426007,,,,,,,0.36857226490974426,0.695287823677063,0.2106083631515503,0.29589518904685974,1.1906629800796509,-4.280953884124756
1764808567.435285,3.0065847857147454,3.6055800219118592,-1.6982336579382418,2.166477680206299,0.5337230563163757,3.9348816871643066,,,,,,
1764808567.436037,,,,,,,0.41018590331077576,0.6711544394493103,0.23272454738616943,0.34073102474212646,1.2675609588623047,-4.421849250793457
1764808567.445337,2.9565275001257656,3.853649358329177,-1.8486925149530171,2.240438938140869,0.6358028650283813,4.047281265258789,,,,,,
1764808567.446067,,,,,,,0.4612980782985687,0.6512070298194885,0.2608374357223511,0.35409048199653625,1.342151403427124,-4.538397789001465
1764808567.455389,3.0302737043380734,4.006192620402574,-1.702330864124,2.3150875568389893,0.7156785726547241,4.168787956237793,,,,,,
1764808567.456097,,,,,,,0.5034710764884949,0.6289673447608948,0.2884056568145752,0.4074522852897644,1.4242653846740723,-4.638329029083252
1764808567.465441,2.988665098142624,4.123362663538754,-1.5019376172475516,2.3671178817749023,0.7378992438316345,4.307384967803955,,,,,,
1764808567.466127,,,,,,,0.5305352210998535,0.5929041504859924,0.30110418796539307,0.49563488364219666,1.5212537050247192,-4.736389636993408
1764808567.475493,2.711804551526904,4.220390082356333,-1.4258679385237394,2.403585195541382,0.7347758412361145,4.426926612854004,,,,,,
1764808567.476157,,,,,,,0.5558041334152222,0.5688080787658691,0.31359267234802246,0.5508961081504822,1.630882978439331,-4.834187984466553
1764808567.485546,2.3740882619321346,4.296727179844678,-1.4388792496576905,2.4408185482025146,0.7301163673400879,4.504064083099365,,,,,,
1764808567.486187,,,,,,,0.5976436734199524,0.5457457900047302,0.31520557403564453,0.6222243309020996,1.698547601699829,-4.872215270996094
1764808567.495598,2.1130302646040917,4.33446011365056,-1.5478635021202265,2.4405694007873535,0.7386313080787659,4.542079448699951,,,,,,
1764808567.496217,,,,,,,0.6431237459182739,0.4957627058029175,0.31427907943725586,0.6555615067481995,1.7314943075180054,-4.909821510314941
1764808567.50565,1.946407623773813,4.4388823188945645,-1.7385241672724485,2.4256412982940674,0.7498104572296143,4.5615153312683105,,,,,,
1764808567.506247,,,,,,,0.6737409830093384,0.44828730821609497,0.3384110927581787,0.6539505124092102,1.7888928651809692,-4.925304412841797
1764808567.515702,1.7582225549548864,4.680016303090751,-1.8979273782432078,2.434007167816162,0.7321904897689819,4.584986209869385,,,,,,
1764808567.516277,,,,,,,0.6978991627693176,0.4054400324821472,0.3707289397716522,0.6318402290344238,1.8283891677856445,-4.921882629394531
1764808567.525755,1.5525181960582732,4.950722710990905,-1.9726202156558632,2.475722551345825,0.6882619261741638,4.602236747741699,,,,,,
1764808567.526307,,,,,,,0.714850902557373,0.35057806968688965,0.40602171421051025,0.5527637600898743,1.872359037399292,-4.921936988830566
1764808567.535807,1.3442372646719216,5.114509251612424,-1.8780178320281207,2.5484619140625,0.6381101012229919,4.618144512176514,,,,,,
1764808567.536338,,,,,,,0.7173381447792053,0.2922362685203552,0.4382939338684082,0.4725784957408905,1.972499966621399,-4.8931355476379395
1764808567.545859,1.062353921458125,5.1503760992854835,-1.6151090922668576,2.609738349914551,0.5927674770355225,4.632313251495361,,,,,,
1764808567.546368,,,,,,,0.7040669918060303,0.23737764358520508,0.4455224275588989,0.42420831322669983,2.107419013977051,-4.855419635772705
1764808567.555911,0.7259417001992463,5.114501652827858,-1.4372820435941218,2.6216628551483154,0.568672239780426,4.631891250610352,,,,,,
1764808567.556398,,,,,,,0.6963210105895996,0.2270650863647461,0.4438769817352295,0.3991853892803192,2.257718324661255,-4.83392333984375
1764808567.565963,0.23504385062754152,5.011927998059988,-1.3846568072132766,2.6139965057373047,0.5268850922584534,4.625442981719971,,,,,,
1764808567.566428,,,,,,,0.7146337032318115,0.24939441680908203,0.4337238073348999,0.459987998008728,2.3624346256256104,-4.7656168937683105
1764808567.576016,-0.3973685020029545,4.89036264257431,-1.4521286073312163,2.5966155529022217,0.47672683000564575,4.590758323669434,,,,,,
1764808567.576458,,,,,,,0.7527835965156555,0.22990751266479492,0.4077131748199463,0.5159624218940735,2.3995201587677,-4.688708782196045
1764808567.586068,-0.809072987872362,4.675554355245828,-1.5427297924935817,2.568704128265381,0.5159280896186829,4.517500400543213,,,,,,
1764808567.586488,,,,,,,0.7729142904281616,0.15766668319702148,0.3938467502593994,0.5354317426681519,2.4806840419769287,-4.600557804107666
1764808567.59612,-1.1166600966632365,4.490480988706648,-1.3091867018178105,2.5338656902313232,0.5731580853462219,4.448024272918701,,,,,,
1764808567.596518,,,,,,,0.772276759147644,0.07381689548492432,0.38778674602508545,0.4422609508037567,2.557683229446411,-4.526867389678955
1764808567.606172,-1.541729675540328,4.654800321030616,-1.2879361162573097,2.515202760696411,0.6007737517356873,4.378488540649414,,,,,,
1764808567.606548,,,,,,,0.7580246329307556,-0.010134696960449219,0.42690277099609375,0.3342988193035126,2.575026273727417,-4.397634983062744
1764808567.616225,-2.048425982746482,4.960526896646619,-1.52287066129148,2.5273520946502686,0.6278296113014221,4.299508094787598,,,,,,
1764808567.616578,,,,,,,0.7544417381286621,-0.07675594091415405,0.44221508502960205,0.2545548677444458,2.6090242862701416,-4.289392471313477
1764808567.626276,-2.4310756390452384,5.269674094361067,-1.4936724777273833,2.5628550052642822,0.6642245054244995,4.194176197052002,,,,,,
1764808567.626608,,,,,,,0.7614237666130066,-0.13207745552062988,0.4115835428237915,0.21731697022914886,2.61336350440979,-4.208144664764404
1764808567.636329,-2.4517320581048727,5.536383249318599,-1.3295803782880304,2.57560658454895,0.6746204495429993,4.071841716766357,,,,,,
1764808567.636638,,,,,,,0.7775899767875671,-0.1614980697631836,0.412025511264801,0.12818831205368042,2.582029342651367,-4.121694087982178
1764808567.646381,-2.2037106524825094,5.494581750899553,-1.2676000151932239,2.5927810668945312,0.6549356579780579,3.9878957271575928,,,,,,
1764808567.646668,,,,,,,0.7971389889717102,-0.13387823104858398,0.4102286696434021,0.15095168352127075,2.563819646835327,-3.9321768283843994
1764808567.656433,-2.117008520585298,5.17968110422492,-1.146508706960082,2.589576244354248,0.5886029601097107,3.9350194931030273,,,,,,
1764808567.656699,,,,,,,0.7936097383499146,-0.1292700171470642,0.37225341796875,0.16744567453861237,2.528376579284668,-3.7703959941864014
1764808567.666486,-2.3051532573938367,4.749538752128184,-0.8736959013652056,2.5517055988311768,0.5085895657539368,3.8578784465789795,,,,,,
1764808567.666729,,,,,,,0.7574496269226074,-0.17057520151138306,0.3397805690765381,0.14301489293575287,2.4956836700439453,-3.6639556884765625
1764808567.676538,-2.5399025089889764,4.352136932377517,-0.6659188278477639,2.5017645359039307,0.45265814661979675,3.713789224624634,,,,,,
1764808567.676759,,,,,,,0.7225417494773865,-0.23789995908737183,0.3020138144493103,0.09100798517465591,2.469069480895996,-3.5401694774627686
1764808567.68659,-2.647377379801869,4.185013648548722,-0.42286001306883986,2.444129705429077,0.3886447548866272,3.5314249992370605,,,,,,
1764808567.686789,,,,,,,0.7081067562103271,-0.27902036905288696,0.2600908875465393,0.007832407020032406,2.472191333770752,-3.4438750743865967
1764808567.696642,-2.5558734005808827,4.32470619687736,-0.34951654443852603,2.388113021850586,0.287336528301239,3.350395441055298,,,,,,
1764808567.696819,,,,,,,0.701095461845398,-0.26139581203460693,0.2722223401069641,-0.16907791793346405,2.4648067951202393,-3.3373916149139404
1764808567.706695,-2.2887620945632454,4.56268259382546,-0.6389753644078969,2.3719773292541504,0.18017421662807465,3.2059483528137207,,,,,,
1764808567.706849,,,,,,,0.6895387768745422,-0.2243180274963379,0.29301679134368896,-0.24637937545776367,2.4374122619628906,-3.1926229000091553
1764808567.716747,-1.9542770419746636,4.777842178809642,-0.7739964137941598,2.3680307865142822,0.08039063215255737,3.096628427505493,,,,,,
1764808567.716879,,,,,,,0.6839152574539185,-0.18546843528747559,0.27063947916030884,-0.19542716443538666,2.40968656539917,-3.1016411781311035
1764808567.726799,-1.608784273159504,4.84129495254457,-0.8738608096033335,2.363008975982666,0.017984407022595406,3.029489278793335,,,,,,
1764808567.726909,,,,,,,0.6638136506080627,-0.11427396535873413,0.2725236415863037,-0.1592840701341629,2.416717290878296,-2.9963972568511963
1764808567.736851,-1.433939747428894,4.596168099319935,-0.9707926590919495,2.375870704650879,0.004255280829966068,2.989229440689087,,,,,,
1764808567.736939,,,,,,,0.6337841749191284,-0.08612996339797974,0.27418237924575806,-0.11572903394699097,2.4143307209014893,-2.885154962539673
1764808567.746903,-1.4780670584470033,4.165688185831904,-0.8059832051634788,2.3791189193725586,0.009850340895354748,2.9495620727539062,,,,,,
1764808567.746969,,,,,,,0.5852742791175842,-0.11749815940856934,0.27387040853500366,-0.19337323307991028,2.434157609939575,-2.8099172115325928
1764808567.756956,-1.5544599777758121,3.777502522715926,-0.5539525273671373,2.357475519180298,-0.0006680794758722186,2.887075424194336,,,,,,
1764808567.756999,,,,,,,0.5391161441802979,-0.1397051215171814,0.26910561323165894,-0.3185535669326782,2.4826200008392334,-2.739370822906494
1764808567.767008,-1.509714827120304,3.5627743148863313,-0.4693488655865192,2.331974506378174,-0.03278980404138565,2.803849935531616,,,,,,
1764808567.76703,,,,,,,0.5224248170852661,-0.1300724744796753,0.25426843762397766,-0.3389216661453247,2.482518434524536,-2.657778263092041
1764808567.77706,-1.3743658609539269,3.578507890591025,-0.4779098462481051,2.31046199798584,-0.06391097605228424,2.7239480018615723,0.5202688574790955,-0.07550805807113647,0.22602617740631104,-0.2590489983558655,2.5012295246124268,-2.621913194656372
1764808567.78709,,,,,,,0.5151765942573547,0.01212930679321289,0.244010329246521,-0.24714282155036926,2.5375702381134033,-2.622570037841797
1764808567.787112,-1.2239718858689068,3.882739259213209,-0.5519395435769111,2.259754180908203,-0.07728548347949982,2.6584157943725586,,,,,,
1764808567.79712,,,,,,,0.5345690250396729,0.07958728075027466,0.25272679328918457,-0.14980773627758026,2.538560628890991,-2.579195737838745
1764808567.797165,-0.9883061039507388,4.022107397893071,-0.7232990767359733,2.2108845710754395,-0.07964690774679184,2.627619504928589,,,,,,
1764808567.80715,,,,,,,0.542980968952179,0.07170236110687256,0.24358683824539185,-0.1220109835267067,2.490201234817505,-2.6353323459625244
1764808567.807217,-0.7343506321042775,3.958910060223937,-1.0001438412606716,2.1881561279296875,-0.0914417952299118,2.6403756141662598,,,,,,
1764808567.81718,,,,,,,0.5235724449157715,0.09305733442306519,0.2746787369251251,-0.22094787657260895,2.4681460857391357,-2.6733031272888184
1764808567.817269,-0.5091214885264634,3.9204824221521615,-1.2221848563216626,2.1721041202545166,-0.07954226434230804,2.682375431060791,,,,,,
1764808567.82721,,,,,,,0.5003690123558044,0.08919331431388855,0.2624357342720032,-0.35025474429130554,2.4806101322174072,-2.6694772243499756
1764808567.827321,-0.3788502640157938,3.8024493324458595,-1.248467590830475,2.1649281978607178,-0.047721367329359055,2.72448992729187,,,,,,
1764808567.83724,,,,,,,0.4641295075416565,0.03210026025772095,0.262988418340683,-0.6831993460655212,2.5213582515716553,-2.742509126663208
1764808567.837373,-0.17645663710236548,3.7175147947430607,-0.9312928617440164,2.163013219833374,-0.0719742402434349,2.758568525314331,,,,,,
1764808567.84727,,,,,,,0.46064335107803345,0.005070507526397705,0.28299540281295776,-1.11849045753479,2.5415830612182617,-2.790581464767456
1764808567.847426,0.05022153623998165,3.693609018498659,-0.6894036752663553,2.1444222927093506,-0.16352689266204834,2.773014545440674,,,,,,
1764808567.8573,,,,,,,0.4954835772514343,0.021257460117340088,0.29693934321403503,-1.4957232475280762,2.5024940967559814,-2.8085169792175293
1764808567.857478,0.3269844677001238,3.7776352091848846,-0.6607553806699812,2.0997838973999023,-0.2746046781539917,2.7895309925079346,,,,,,
1764808567.86733,,,,,,,0.5186740756034851,0.0992470383644104,0.24310648441314697,-1.5665098428726196,2.47643780708313,-2.781977653503418
1764808567.86753,0.6415308941096067,3.8236540330380198,-0.6469894517764448,2.029658794403076,-0.33463358879089355,2.8447680473327637,,,,,,
1764808567.877361,,,,,,,0.48847538232803345,0.14975827932357788,0.1251651644706726,-1.4066517353057861,2.4738056659698486,-2.7939958572387695
1764808567.877582,0.6683414518848061,3.4535324344009157,-0.17342384527772664,1.9040565490722656,-0.36868715286254883,2.9295027256011963,,,,,,
1764808567.887391,,,,,,,0.43103283643722534,0.1588236689567566,0.05759000778198242,-1.2132858037948608,2.489520788192749,-2.784811496734619
1764808567.887634,0.16617489706277846,2.8312667972534893,0.44030631097555156,1.7320140600204468,-0.45632532238960266,2.9809253215789795,,,,,,
1764808567.897421,,,,,,,0.42003196477890015,0.1396198868751526,0.019559919834136963,-1.0412248373031616,2.419684886932373,-2.7322237491607666
1764808567.897687,-0.6165566118508577,2.510792734360695,0.601656564360857,1.5753977298736572,-0.5458360314369202,2.9593467712402344,,,,,,
1764808567.907451,,,,,,,0.4483115077018738,0.04464155435562134,-0.061093032360076904,-0.856194257736206,2.2849626541137695,-2.614494562149048
1764808567.907739,-1.5063748690426348,2.1892530880630017,0.9143404117688536,1.4253181219100952,-0.5682171583175659,2.8599841594696045,,,,,,
1764808567.917481,,,,,,,0.4711740016937256,-0.050593167543411255,-0.11265099048614502,-0.7235708236694336,2.1530253887176514,-2.5265839099884033
1764808567.917791,-2.3992981065124273,1.7710645008713006,1.2530167785674333,1.2700284719467163,-0.5210459232330322,2.6842458248138428,,,,,,
1764808567.927511,,,,,,,0.4790409207344055,-0.11112809181213379,-0.1163867712020874,-0.6301196813583374,2.01885986328125,-2.3836350440979004
1764808567.927843,-2.886363830575347,1.723748622944951,1.439137608332932,1.1459765434265137,-0.4302552342414856,2.4477033615112305,,,,,,
1764808567.937541,,,,,,,0.496696412563324,-0.1614610254764557,-0.1353735327720642,-0.5488303899765015,1.8816909790039062,-2.170788288116455
1764808567.937896,-2.9021196181118487,2.049948662269115,1.5621706982836125,1.0778619050979614,-0.33558785915374756,2.209468126296997,,,,,,
1764808567.947571,,,,,,,0.49379247426986694,-0.20356512069702148,-0.18207502365112305,-0.46242600679397583,1.7243632078170776,-1.97421133518219
1764808567.947948,-2.750850613757968,2.299773902443051,1.9544678883716462,1.0122923851013184,-0.27922961115837097,1.983473300933838,,,,,,
1764808567.957601,,,,,,,0.4793927073478699,-0.2683212459087372,-0.251443088054657,-0.3549230694770813,1.5838273763656616,-1.7271546125411987
1764808567.958,-2.5278411920562385,2.315686341845989,2.2820424309194087,0.9052647352218628,-0.23476919531822205,1.7602977752685547,,,,,,
1764808567.967631,,,,,,,0.4963281750679016,-0.3206082582473755,-0.33344876766204834,-0.1709793359041214,1.3812077045440674,-1.4802566766738892
1764808567.968052,-2.371155131089687,2.171484791660309,2.59489491289258,0.7681198120117188,-0.1818123459815979,1.554227352142334,,,,,,
1764808567.977661,,,,,,,0.5212658643722534,-0.3393976092338562,-0.37985777854919434,-0.06627592444419861,1.161110758781433,-1.2539265155792236
1764808567.978104,-2.7181258635029195,2.043882494097948,2.781572499758005,0.6236845850944519,-0.15517807006835938,1.3002030849456787,,,,,,
1764808567.987692,,,,,,,0.5324564576148987,-0.3822677731513977,-0.40349793434143066,-0.06021963432431221,0.9282181262969971,-0.9827959537506104
1764808567.988157,-2.974352202890813,2.1153695212066173,2.8792192195177075,0.48817792534828186,-0.17338961362838745,1.0025084018707275,,,,,,
1764808567.997722,,,,,,,0.5477937459945679,-0.4233284592628479,-0.40956199169158936,-0.054183732718229294,0.6813923716545105,-0.698005199432373
1764808567.998209,-3.016208354106545,2.2660206859230994,2.7577991177216172,0.35878026485443115,-0.15402495861053467,0.7017560601234436,,,,,,
1764808568.007752,,,,,,,0.5464408993721008,-0.4116164445877075,-0.40923619270324707,-0.04103783890604973,0.4367791712284088,-0.40742260217666626
1764808568.008261,-2.9422064215674997,2.3702087901502846,2.6134993678584695,0.25405368208885193,-0.07902703434228897,0.4296738803386688,,,,,,
1764808568.017781,,,,,,,0.5251034498214722,-0.4227359890937805,-0.40601956844329834,-0.016995953395962715,0.22006312012672424,-0.1117171198129654
1764808568.018313,-2.9605712225586176,2.4892875895172355,2.7545848318502304,0.13627111911773682,-0.00578850694000721,0.1627439260482788,,,,,,
1764808568.027811,,,,,,,0.5257248878479004,-0.436958909034729,-0.41231775283813477,0.04947095736861229,-0.01634090021252632,0.19587239623069763
1764808568.028366,-3.0364149835720657,2.590819626277685,2.9354540246978402,0.0010591309983283281,0.03772656247019768,-0.10299386084079742,,,,,,
1764808568.037841,,,,,,,0.5589319467544556,-0.3999043405056,-0.44763273000717163,0.12407981604337692,-0.26899072527885437,0.4949595034122467
1764808568.038418,-3.080114716827869,2.6042244667738674,3.066454148004949,-0.1498853713274002,0.07992728054523468,-0.35749539732933044,,,,,,
1764808568.047871,,,,,,,0.5929428339004517,-0.3697578012943268,-0.4703848361968994,0.23606866598129272,-0.5338338613510132,0.7671427726745605
1764808568.04847,-3.089239980308711,2.485816114014387,3.1063419217571613,-0.3062271475791931,0.13599249720573425,-0.6133453845977783,,,,,,
1764808568.057901,,,,,,,0.5972418189048767,-0.3571258783340454,-0.46396851539611816,0.45505714416503906,-0.7755114436149597,1.0088247060775757
1764808568.058522,-3.017547493755817,2.401056932878494,3.043181116706133,-0.474195659160614,0.2162625640630722,-0.8811683058738708,,,,,,
1764808568.067931,,,,,,,0.5776979327201843,-0.27806591987609863,-0.4368409514427185,0.7189527153968811,-0.9591795206069946,1.270150065422058
1764808568.068574,-2.8503698493912815,2.6434604986190795,2.8235616297036406,-0.6454571485519409,0.3041040301322937,-1.1395831108093262,,,,,,
1764808568.077961,,,,,,,0.5697444081306458,-0.22250941395759583,-0.40211546421051025,0.8785640597343445,-1.1263097524642944,1.5360195636749268
1764808568.078627,-2.609140880388021,2.912279777598381,2.48707868129611,-0.8099446296691895,0.3613494634628296,-1.3734419345855713,,,,,,
1764808568.087991,,,,,,,0.5801629424095154,-0.26900714635849,-0.3573601245880127,0.8915208578109741,-1.309238314628601,1.7817926406860352
1764808568.088679,-2.4091677586197853,2.938226119759679,2.06058929874897,-0.9563836455345154,0.3666453957557678,-1.591202974319458,,,,,,
1764808568.098021,,,,,,,0.584302544593811,-0.35832706093788147,-0.29922598600387573,0.8207299709320068,-1.5171552896499634,1.984756588935852
1764808568.098731,-2.324416760790348,2.7768068927913903,1.6052891245201228,-1.0924410820007324,0.3383439779281616,-1.8103652000427246,,,,,,
1764808568.108052,,,,,,,0.5695701241493225,-0.38638079166412354,-0.22665458917617798,0.738832414150238,-1.693363070487976,2.170441150665283
1764808568.108783,-2.2924644562125205,2.808825832864642,1.1623618173912167,-1.219234585762024,0.2957753837108612,-2.032517194747925,,,,,,
1764808568.118082,,,,,,,0.556236207485199,-0.36850011348724365,-0.15873932838439941,0.7404143810272217,-1.8502908945083618,2.364316940307617
1764808568.118835,-2.3530904820889234,3.010657149720192,0.7947896109759807,-1.3345041275024414,0.26686012744903564,-2.2461514472961426,,,,,,
1764808568.128112,,,,,,,0.5558058023452759,-0.35726019740104675,-0.10633176565170288,0.7690407037734985,-1.9849541187286377,2.5569729804992676
1764808568.128888,-2.505138946382701,3.183380445513129,0.4238473436057567,-1.4401298761367798,0.28989851474761963,-2.4517786502838135,,,,,,
1764808568.138142,,,,,,,0.5649364590644836,-0.33959701657295227,-0.05027198791503906,0.8141506314277649,-2.1369307041168213,2.7455193996429443
1764808568.13894,-2.63435832375288,3.157695384636521,0.015381109005212782,-1.5233097076416016,0.3405233323574066,-2.641677141189575,,,,,,
1764808568.148172,,,,,,,0.5575062036514282,-0.3379787802696228,-0.002051055431365967,0.8153530359268188,-2.240959644317627,2.9054348468780518
1764808568.148992,-2.7406343401700255,3.1199358550846576,-0.19132921206355094,-1.5937902927398682,0.3694170117378235,-2.8309078216552734,,,,,,
1764808568.158202,,,,,,,0.5398750901222229,-0.3309673070907593,0.06244221329689026,0.8040744662284851,-2.285998582839966,3.0613725185394287
1764808568.159044,-2.8304700939178464,3.2541496797412632,-0.3447651851929724,-1.668354868888855,0.38371020555496216,-3.0402684211730957,,,,,,
1764808568.168232,,,,,,,0.5440604090690613,-0.30089253187179565,0.13675600290298462,0.8508448600769043,-2.3309061527252197,3.21498441696167
1764808568.169097,-2.7131203103005883,3.5909137831777334,-0.509862662282586,-1.6965875625610352,0.4267228841781616,-3.2523951530456543,,,,,,
1764808568.178262,,,,,,,0.5509578585624695,-0.24921607971191406,0.16170364618301392,0.9210546016693115,-2.338857889175415,3.3713600635528564
1764808568.179149,-2.486483345751464,4.099844133046269,-0.3870695185676217,-1.6927549839019775,0.5015947222709656,-3.4236955642700195,,,,,,
1764808568.188293,,,,,,,0.5623125433921814,-0.20519372820854187,0.1496807336807251,1.0701749324798584,-2.333500385284424,3.552241563796997
1764808568.189201,-2.23647836509645,4.452358178800345,-0.2306372862316668,-1.7008705139160156,0.5590998530387878,-3.533876895904541,,,,,,
1764808568.198322,,,,,,,0.5709286332130432,-0.1976763904094696,0.12796232104301453,1.2756494283676147,-2.3266806602478027,3.7116308212280273
1764808568.199253,-2.0975153000861404,4.404405756536126,-0.25961773539185523,-1.7226506471633911,0.6098876595497131,-3.6168415546417236,,,,,,
1764808568.208352,,,,,,,0.5602592825889587,-0.18117624521255493,0.11205071210861206,1.3774375915527344,-2.2513816356658936,3.8435027599334717
1764808568.209305,-2.148134311211109,4.230985126128792,-0.22186361266747115,-1.7578928470611572,0.634357750415802,-3.723457098007202,,,,,,
1764808568.218383,,,,,,,0.5664286017417908,-0.16435515880584717,0.13986486196517944,1.3509408235549927,-2.173959970474243,3.9612436294555664
1764808568.219358,-2.225402259808779,4.140267913371324,-0.2639877671696246,-1.8029996156692505,0.6104937195777893,-3.8663551807403564,,,,,,
1764808568.228413,,,,,,,0.5901520848274231,-0.1948983073234558,0.18661656975746155,1.1117980480194092,-2.1603195667266846,4.103279113769531
1764808568.22941,-2.127865430164337,4.1228608514964575,-0.5354910245358944,-1.8341978788375854,0.5353397130966187,-4.02990198135376,,,,,,
1764808568.238443,,,,,,,0.6110370755195618,-0.2557520866394043,0.21665596961975098,0.7379102110862732,-2.1387484073638916,4.203098297119141
1764808568.239462,-1.912218353924155,4.276576079958677,-0.71791080782637,-1.8619087934494019,0.4441338777542114,-4.190535545349121,,,,,,
1764808568.248473,,,,,,,0.6271107792854309,-0.2989628314971924,0.24043643474578857,0.36522024869918823,-2.0450093746185303,4.28483772277832
1764808568.249514,-1.6666589545011519,4.608977312010526,-0.6441364004328847,-1.9097570180892944,0.3616671860218048,-4.3257904052734375,,,,,,
1764808568.258503,,,,,,,0.6606876850128174,-0.27729809284210205,0.2841365933418274,0.13947273790836334,-1.9986237287521362,4.300914764404297
1764808568.259566,-1.437744400408864,5.117451150283217,-0.6835211930990218,-1.9540067911148071,0.3139699697494507,-4.423086166381836,,,,,,
1764808568.268533,,,,,,,0.7124264240264893,-0.17991048097610474,0.3052283525466919,0.1500135213136673,-2.002927780151367,4.410848140716553
1764808568.269619,-1.294717154699564,5.526055916571617,-0.8105799583692103,-1.9712437391281128,0.3393200933933258,-4.4612956047058105,,,,,,
1764808568.278563,,,,,,,0.7380942106246948,-0.07945787906646729,0.2765140235424042,0.35059982538223267,-2.0657618045806885,4.5950422286987305
1764808568.279671,-1.352685359543562,5.422070056918263,-1.0944072021923958,-1.9683606624603271,0.470100462436676,-4.441873073577881,,,,,,
1764808568.288593,,,,,,,0.6998218297958374,-0.004582226276397705,0.24882438778877258,0.6490145325660706,-2.1177821159362793,4.663788318634033
1764808568.289723,-1.5332733973622321,4.817863808074593,-1.1297511219698935,-1.951646327972412,0.5897953510284424,-4.463449478149414,,,,,,
1764808568.298623,,,,,,,0.6146246790885925,0.06211012601852417,0.2572840452194214,0.9653924107551575,-2.010218858718872,4.749746799468994
1764808568.299775,-1.5850485927850007,4.272424805498123,-1.000038627320528,-1.944626808166504,0.6617587804794312,-4.552931308746338,,,,,,
1764808568.308653,,,,,,,0.5557921528816223,0.0969153642654419,0.277590274810791,1.1375724077224731,-1.8254363536834717,4.871382236480713
1764808568.309828,-1.5157020848363636,4.103267677754164,-1.0440075329065321,-1.944738745689392,0.7162774801254272,-4.686838626861572,,,,,,
1764808568.318683,,,,,,,0.5370645523071289,0.061648428440093994,0.33707141876220703,0.9603344202041626,-1.703014612197876,4.910953044891357
1764808568.31988,-1.2220920634716748,4.170736701393127,-1.263396133762598,-1.9193452596664429,0.7556638121604919,-4.844593524932861,,,,,,
1764808568.328715,,,,,,,0.5379101037979126,-0.0213128924369812,0.38837215304374695,0.46829676628112793,-1.5509127378463745,4.916347980499268
1764808568.329932,-0.7084779397010803,4.522031726746261,-1.270604457706213,-1.8604655265808105,0.7429723739624023,-4.992384433746338,,,,,,
1764808568.338744,,,,,,,0.5619688034057617,-0.08710306882858276,0.4070969521999359,-0.08482741564512253,-1.3869203329086304,4.921451568603516
1764808568.339984,0.09252280087471008,5.153744698935747,-1.0906686732511968,-1.7910819053649902,0.6345692276954651,-5.083958148956299,,,,,,
1764808568.348774,,,,,,,0.6185988187789917,-0.04265427589416504,0.3881382644176483,-0.3484249711036682,-1.3100411891937256,4.930730819702148
1764808568.350036,0.9882388839334248,5.705177388969063,-0.8274456068437546,-1.7347064018249512,0.44541868567466736,-5.063862323760986,,,,,,
1764808568.358804,,,,,,,0.6782426238059998,0.07893538475036621,0.3116764426231384,-0.23238633573055267,-1.3027143478393555,4.961019515991211
1764808568.360089,1.3795453094184398,5.856894137090444,-0.7115232987463473,-1.725249171257019,0.23891639709472656,-4.94745397567749,,,,,,
1764808568.368834,,,,,,,0.6998811364173889,0.18350917100906372,0.23596054315567017,0.11562091112136841,-1.3001744747161865,4.956867218017578
1764808568.370141,1.0085808302164077,5.5341532983094455,-0.6207645849347114,-1.7846306562423706,0.06294411420822144,-4.811804294586182,,,,,,
1764808568.378864,,,,,,,0.6906388998031616,0.24428004026412964,0.21262796223163605,0.5285650491714478,-1.2412831783294678,4.947771072387695
1764808568.380193,0.2672258723080158,5.144869318562746,-0.5797264721035957,-1.8950306177139282,-0.06880805641412735,-4.72812557220459,,,,,,
1764808568.388894,,,,,,,0.6856091618537903,0.28532809019088745,0.24272073805332184,0.9394569993019104,-1.150766372680664,5.002784252166748
1764808568.390245,-0.24067454999089238,5.012627086240053,-0.8049649680316447,-1.9709874391555786,-0.11952769011259079,-4.71755838394165,,,,,,
1764808568.398924,,,,,,,0.6816850304603577,0.3332015872001648,0.30964943766593933,0.94375079870224,-1.1326451301574707,4.9745774269104
1764808568.400297,-0.3343628875136375,5.257431283381581,-1.362441029882431,-1.9154291152954102,-0.030214859172701836,-4.763822555541992,,,,,,
1764808568.408954,,,,,,,0.6531895399093628,0.364215612411499,0.37888848781585693,0.6673271656036377,-1.0547209978103638,4.8554253578186035
1764808568.41035,0.22666414481699465,5.956831598135828,-1.4201485379636287,-1.7325445413589478,0.09133240580558777,-4.811408519744873,,,,,,
1764808568.418984,,,,,,,0.613084614276886,0.30698853731155396,0.4210890829563141,0.27318939566612244,-0.8791148066520691,4.8020920753479
1764808568.420402,1.377957747966051,6.688914869830012,-1.1125006388962269,-1.511336326599121,0.1408701241016388,-4.765439510345459,,,,,,
1764808568.429014,,,,,,,0.590783417224884,0.2931239604949951,0.40911030769348145,-0.009909131564199924,-0.7255889177322388,4.754571914672852
1764808568.430454,2.5937387285947797,7.04272889226675,-0.8917338084895163,-1.3080788850784302,0.11423242092132568,-4.58137845993042,,,,,,
1764808568.439044,,,,,,,0.5940946340560913,0.39299440383911133,0.31209704279899597,0.020654864609241486,-0.5994495749473572,4.592263698577881
1764808568.440506,3.2513053962260483,6.721711808538436,-0.35712650798559187,-1.1927509307861328,0.006010605953633785,-4.318171501159668,,,,,,
1764808568.449074,,,,,,,0.5968703627586365,0.5182713270187378,0.20277494192123413,0.27988511323928833,-0.4322558045387268,4.384195327758789
1764808568.450559,3.18272636551857,5.93655687187016,0.29435930536203087,-1.2077326774597168,-0.16594138741493225,-4.062331199645996,,,,,,
1764808568.459105,,,,,,,0.612066924571991,0.6209353804588318,0.11639603972434998,0.7019658088684082,-0.27358442544937134,4.233759880065918
1764808568.460611,2.570457806250453,5.164279536953568,0.700899028879404,-1.3196234703063965,-0.3349072337150574,-3.866964340209961,,,,,,
1764808568.469135,,,,,,,0.6430539488792419,0.6689159870147705,0.0663454532623291,1.1253710985183716,-0.18892811238765717,4.118497371673584
1764808568.470663,1.785648322018981,4.794901450160146,0.6205716927111149,-1.4545722007751465,-0.43506401777267456,-3.740818500518799,,,,,,
1764808568.479166,,,,,,,0.657988965511322,0.6376440525054932,0.05116838216781616,1.4218031167984009,-0.11176835745573044,3.9844255447387695
1764808568.480715,1.1940852816492318,5.056857273110747,0.2233598425745964,-1.5670596361160278,-0.4274234175682068,-3.678173303604126,,,,,,
1764808568.489195,,,,,,,0.6484874486923218,0.5719567537307739,0.08439800143241882,1.319579005241394,-0.021354034543037415,3.839573860168457
1764808568.490767,1.0401537800878287,5.907107490023971,-0.31764797262139616,-1.6168560981750488,-0.3330885171890259,-3.6561644077301025,,,,,,
1764808568.499225,,,,,,,0.6452611684799194,0.4998006820678711,0.1433776617050171,1.023615837097168,0.0019883059430867434,3.801619529724121
1764808568.50082,1.3636264402747154,6.756378048250078,-0.7862708620209247,-1.5859436988830566,-0.21975716948509216,-3.5939207077026367,,,,,,
1764808568.509255,,,,,,,0.6536810398101807,0.3710099458694458,0.1717449426651001,0.5999132394790649,-0.04697604104876518,3.834642171859741
1764808568.510872,1.8295155207961797,6.938889747607708,-1.1275685172338037,-1.5100446939468384,-0.13548387587070465,-3.4807050228118896,,,,,,
1764808568.519285,,,,,,,0.6341997385025024,0.2381688356399536,0.20226186513900757,0.059844449162483215,-0.12049686908721924,3.8012750148773193
1764808568.520924,2.1308219418823717,6.229875801333785,-1.2493980035483836,-1.4615511894226074,-0.08685401827096939,-3.405302047729492,,,,,,
1764808568.529315,,,,,,,0.5779004096984863,0.18826234340667725,0.2356109619140625,-0.35654106736183167,-0.11664806306362152,3.778097629547119
1764808568.530976,2.391969371059537,5.149338572931289,-1.2188427062869072,-1.465266227722168,-0.10019192844629288,-3.4322729110717773,,,,,,
1764808568.539346,,,,,,,0.5365252494812012,0.26040226221084595,0.22832128405570984,-0.45995646715164185,-0.1153031662106514,3.8354077339172363
1764808568.541028,2.7222499576956034,4.454560657280683,-1.2185540255386382,-1.5110491514205933,-0.19286935031414032,-3.5074234008789062,,,,,,
1764808568.549375,,,,,,,0.5374710559844971,0.37925487756729126,0.19081300497055054,-0.2500314712524414,-0.1769856959581375,3.9287848472595215
1764808568.551081,3.0507448299586772,4.284097123113274,-1.2527706948518753,-1.5771952867507935,-0.35028335452079773,-3.545621633529663,,,,,,
1764808568.559405,,,,,,,0.5449205636978149,0.4362555146217346,0.1426076889038086,-0.06404587626457214,-0.2432030737400055,3.9821982383728027
1764808568.561133,2.998830518326163,4.202478578090667,-1.3555612072408199,-1.6673436164855957,-0.524830162525177,-3.5342788696289062,,,,,,
1764808568.569436,,,,,,,0.5287042856216431,0.405971884727478,0.12421101331710815,-0.06615057587623596,-0.31900516152381897,3.9893712997436523
1764808568.571185,2.754020475965738,4.114158489602804,-1.4248445868253707,-1.7628737688064575,-0.7191370725631714,-3.5334434509277344,,,,,,
1764808568.579466,,,,,,,0.5159264802932739,0.31163352727890015,0.14132949709892273,-0.24108470976352692,-0.3673447370529175,4.028672695159912
1764808568.581237,2.6172932071834802,4.066400128605961,-1.5017057081878185,-1.8357617855072021,-0.9214651584625244,-3.553337335586548,,,,,,
1764808568.589496,,,,,,,0.5158545970916748,0.2742501497268677,0.1793113648891449,-0.4083903431892395,-0.41991126537323,4.059140682220459
1764808568.591289,2.475352003145218,4.017690165972709,-1.56309438899979,-1.8869948387145996,-1.1341289281845093,-3.5614521503448486,,,,,,
1764808568.599526,,,,,,,0.5147926807403564,0.2912306785583496,0.23459774255752563,-0.57044517993927,-0.48494938015937805,4.070601463317871
1764808568.601342,2.1578297757953404,3.934306949365139,-1.6925895145714283,-1.9396460056304932,-1.3181676864624023,-3.54929780960083,,,,,,
1764808568.609556,,,,,,,0.5027106404304504,0.3036903738975525,0.28582337498664856,-0.754923403263092,-0.5031678080558777,4.095668792724609
1764808568.611394,1.6792478024393318,3.8996278501719233,-1.9561609560251234,-2.005990982055664,-1.4233967065811157,-3.561159133911133,,,,,,
1764808568.619586,,,,,,,0.48640602827072144,0.28168338537216187,0.3120478391647339,-0.9667627811431885,-0.5005403161048889,4.117352485656738
1764808568.621446,1.2552093201756476,3.890385390052199,-2.1779297300159928,-2.0603768825531006,-1.4631025791168213,-3.614596128463745,,,,,,
1764808568.629616,,,,,,,0.47346073389053345,0.2592172622680664,0.33364397287368774,-1.142522931098938,-0.46606436371803284,4.160272121429443
1764808568.631498,1.0396668733537195,3.9312060607403514,-2.2674060028016565,-2.1120049953460693,-1.4767277240753174,-3.7021212577819824,,,,,,
1764808568.639646,,,,,,,0.4755099415779114,0.2614906430244446,0.36114639043807983,-1.2497780323028564,-0.4127183258533478,4.202075481414795
1764808568.641551,0.9696960960268973,4.051811631283163,-2.385457358817011,-2.1499762535095215,-1.4689276218414307,-3.7981603145599365,,,,,,
1764808568.649676,,,,,,,0.4817042946815491,0.29423707723617554,0.4084680378437042,-1.3405327796936035,-0.33561182022094727,4.208133220672607
1764808568.651603,0.9924521177142858,4.352709471568465,-2.4899708956062794,-2.157322645187378,-1.4435561895370483,-3.8867082595825195,,,,,,
1764808568.659706,,,,,,,0.4982883930206299,0.3478966951370239,0.43970388174057007,-1.3535436391830444,-0.25520727038383484,4.239238739013672
1764808568.661655,1.0317132840007543,4.7240702566117045,-2.5703286269128323,-2.1367883682250977,-1.4049265384674072,-3.9449257850646973,,,,,,
1764808568.669736,,,,,,,0.5208566784858704,0.38707709312438965,0.4398389756679535,-1.2854453325271606,-0.20060847699642181,4.276059627532959
1764808568.671707,1.02372053168118,5.053489842504263,-2.6606021875560284,-2.105991840362549,-1.3789865970611572,-3.967945098876953,,,,,,
1764808568.679767,,,,,,,0.5481871366500854,0.3951519727706909,0.4080905616283417,-1.2597867250442505,-0.12129394710063934,4.2692718505859375
1764808568.681759,0.9569190320402383,5.2080520431846375,-2.519126847463846,-2.11042857170105,-1.3896371126174927,-3.980618476867676,,,,,,
1764808568.689797,,,,,,,0.584595799446106,0.381294310092926,0.374358206987381,-1.4099875688552856,-0.060936328023672104,4.1890645027160645
1764808568.691812,0.987037691450119,5.118696181908249,-2.30384641257897,-2.1430442333221436,-1.4364155530929565,-4.00244665145874,,,,,,
1764808568.699827,,,,,,,0.6186787486076355,0.3647191524505615,0.377221941947937,-1.6267410516738892,-0.035677846521139145,4.154850006103516
1764808568.701864,1.0934276896357535,4.8933530565619465,-2.2777697220362723,-2.153463840484619,-1.4962929487228394,-4.028217315673828,,,,,,
1764808568.709857,,,,,,,0.6362250447273254,0.35982638597488403,0.41031327843666077,-1.8108807802200317,-0.020227251574397087,4.165309906005859
1764808568.711916,1.182169218406081,4.773697918611765,-2.4221416603527963,-2.129946231842041,-1.5463801622390747,-4.0447096824646,,,,,,
1764808568.719888,,,,,,,0.6049447059631348,0.3686085343360901,0.4390850365161896,-1.9778051376342773,0.03390123322606087,4.16517448425293
1764808568.721968,1.2167457340076564,4.75835655709505,-2.492175712174177,-2.0843725204467773,-1.5903105735778809,-4.041783809661865,,,,,,
1764808568.729917,,,,,,,0.5649513602256775,0.3822441101074219,0.45301657915115356,-2.1377692222595215,0.13373036682605743,4.1466522216796875
1764808568.73202,1.199282850292325,4.955505269092321,-2.398600771898031,-2.047196865081787,-1.662569522857666,-4.033079147338867,,,,,,
1764808568.739947,,,,,,,0.5651723742485046,0.3834490478038788,0.45457565784454346,-2.3516433238983154,0.21305367350578308,4.136203765869141
1764808568.742073,1.1440458239778875,5.1135944748550655,-2.4782325270175933,-1.994044303894043,-1.7189922332763672,-4.040696144104004,,,,,,
1764808568.749977,,,,,,,0.6073334217071533,0.3631311058998108,0.45862460136413574,-2.6705379486083984,0.18135273456573486,4.1166791915893555
1764808568.752125,1.206377484728396,4.963093532264232,-2.5184403265044093,-1.9034160375595093,-1.7423095703125,-4.052918434143066,,,,,,
1764808568.760007,,,,,,,0.6260554790496826,0.3501552939414978,0.464333713054657,-3.022865056991577,0.14234648644924164,4.115708351135254
1764808568.762177,1.3173866671472787,4.523690307608247,-2.3793854915574193,-1.8408397436141968,-1.7518151998519897,-4.059294700622559,,,,,,
1764808568.770037,,,,,,,0.5928460955619812,0.36352160573005676,0.46130719780921936,-3.198374032974243,0.20808342099189758,4.135045051574707
1764808568.772229,1.3103963698685168,4.078281120535731,-2.2731601824142036,-1.8227128982543945,-1.7585352659225464,-4.079408168792725,,,,,,
1764808568.780067,,,,,,,0.5318610668182373,0.39598286151885986,0.4601808786392212,-3.3411827087402344,0.3077511489391327,4.1671881675720215
1764808568.782281,1.1960782090321183,3.8440094233244655,-2.4364604008235036,-1.8144352436065674,-1.7442269325256348,-4.119346618652344,,,,,,
1764808568.790097,,,,,,,0.5113397836685181,0.41397395730018616,0.4540916681289673,-3.503126382827759,0.3195796012878418,4.191219806671143
1764808568.792334,1.1969694587834179,3.7816736709207293,-2.524403618822992,-1.8095470666885376,-1.7159255743026733,-4.169212341308594,,,,,,
1764808568.800128,,,,,,,0.5432369709014893,0.37092307209968567,0.4273836016654968,-3.653716564178467,0.3521154224872589,4.234581470489502
1764808568.802386,1.2224630887411534,3.8453462248861787,-2.4282833779782056,-1.8339873552322388,-1.7133839130401611,-4.2160444259643555,,,,,,
1764808568.810158,,,,,,,0.5751137733459473,0.38695228099823,0.41718989610671997,-3.6531898975372314,0.35308587551116943,4.294371128082275
1764808568.812438,1.2852177972093224,3.99463779168725,-2.5380299931153654,-1.8482979536056519,-1.7054458856582642,-4.255723476409912,,,,,,
1764808568.820188,,,,,,,0.5901020765304565,0.4424535632133484,0.4150584936141968,-3.5547432899475098,0.320580393075943,4.343313217163086
1764808568.82249,1.2802460001461207,4.140072683060169,-2.7245772315993904,-1.8177677392959595,-1.6370164155960083,-4.278029918670654,,,,,,
1764808568.830218,,,,,,,0.5955116152763367,0.4948461353778839,0.422945499420166,-3.379223585128784,0.28120318055152893,4.395832538604736
1764808568.832542,1.110726249634847,4.254934741514921,-2.853793394099176,-1.7582945823669434,-1.5065360069274902,-4.268444538116455,,,,,,
1764808568.840248,,,,,,,0.5835356116294861,0.5110564231872559,0.42816001176834106,-3.1869184970855713,0.303546279668808,4.405271053314209
1764808568.842595,0.8064887435328215,4.417974263161421,-2.846291640166938,-1.704972505569458,-1.319589614868164,-4.235984802246094,,,,,,
1764808568.850278,,,,,,,0.5676232576370239,0.5526653528213501,0.4319981336593628,-2.958125114440918,0.3576207160949707,4.411380767822266
1764808568.852647,0.5504548579771071,4.770732639065384,-2.8035116521045564,-1.672133207321167,-1.0851044654846191,-4.197052955627441,,,,,,
1764808568.860308,,,,,,,0.594422459602356,0.5929356217384338,0.40508681535720825,-2.6843953132629395,0.40187445282936096,4.354149341583252
1764808568.862699,0.47364247112721203,5.22858162099421,-2.680343829858303,-1.649032711982727,-0.8540123701095581,-4.1600141525268555,,,,,,
1764808568.870339,,,,,,,0.6430770754814148,0.6451457738876343,0.3775396943092346,-2.369311809539795,0.44879963994026184,4.2576727867126465
1764808568.872751,0.6133901837091893,5.898464749363065,-2.52798732252866,-1.6296699047088623,-0.7054969668388367,-4.1038641929626465,,,,,,
1764808568.880368,,,,,,,0.7093101739883423,0.714125394821167,0.3625125288963318,-2.1148500442504883,0.3852504789829254,4.14615535736084
1764808568.882804,0.9638098144672811,6.721314333653449,-2.525133978924155,-1.586617350578308,-0.6942131519317627,-3.9931256771087646,,,,,,
1764808568.890399,,,,,,,0.7656193375587463,0.6950862407684326,0.364300012588501,-1.9953713417053223,0.16690881550312042,3.9427881240844727
1764808568.892856,1.3699638266026972,6.589232260328531,-2.796610494413972,-1.4603537321090698,-0.7610248327255249,-3.82835054397583,,,,,,
1764808568.900428,,,,,,,0.6961676478385925,0.6164514422416687,0.37245506048202515,-1.9875540733337402,0.12175066024065018,3.7325246334075928
1764808568.902908,1.7403911301881074,5.4943397588372225,-2.864977343675494,-1.267575740814209,-0.8145724534988403,-3.661590337753296,,,,,,
1764808568.910458,,,,,,,0.51451575756073,0.5942437052726746,0.3996407389640808,-1.8543912172317505,0.25155073404312134,3.5869646072387695
1764808568.91296,2.10240248760581,4.3304660755783315,-2.457134209409356,-1.085096001625061,-0.8537590503692627,-3.519575834274292,,,,,,
1764808568.920489,,,,,,,0.3463289141654968,0.5734765529632568,0.3974878787994385,-1.7914320230484009,0.4350191056728363,3.3944413661956787
1764808568.923012,2.3028629544995725,3.3784687178492545,-1.971298027141392,-0.9456989765167236,-0.956482470035553,-3.4287967681884766,,,,,,
1764808568.930519,,,,,,,0.26201629638671875,0.5790759325027466,0.3523522615432739,-1.7611968517303467,0.5808860063552856,3.2212116718292236
1764808568.933065,2.37663750802353,2.702554492622614,-1.655537841027975,-0.8313972353935242,-1.1330103874206543,-3.3805437088012695,,,,,,
1764808568.940549,,,,,,,0.2579250931739807,0.5653741359710693,0.2741146683692932,-1.7529796361923218,0.6471406817436218,3.020925283432007
1764808568.943117,2.5349302735343575,2.4173767840385434,-1.4963056027099488,-0.7452426552772522,-1.2855794429779053,-3.3340561389923096,,,,,,
1764808568.950579,,,,,,,0.2735827565193176,0.6006296873092651,0.1820865273475647,-1.6912870407104492,0.6533993482589722,2.8703935146331787
1764808568.953169,2.8080247456148264,2.317078088465333,-1.5765341546788811,-0.6689469218254089,-1.3093093633651733,-3.2297842502593994,,,,,,
1764808568.960609,,,,,,,0.2780851721763611,0.6401306390762329,0.09037590026855469,-1.5721886157989502,0.6186507344245911,2.734938144683838
1764808568.963221,3.0450802283257246,2.0314888764709234,-1.7071563845843076,-0.6213407516479492,-1.1955708265304565,-3.049192190170288,,,,,,
1764808568.970639,,,,,,,0.23621946573257446,0.6639206409454346,0.02890927344560623,-1.4179348945617676,0.6032717823982239,2.6546711921691895
1764808568.973273,3.0784137581288813,1.6517057155191897,-1.9212854574769733,-0.6087061166763306,-0.9753590226173401,-2.8362085819244385,,,,,,
1764808568.980669,,,,,,,0.19076228141784668,0.6361148357391357,-0.007915675640106201,-1.2423593997955322,0.6311558485031128,2.5675554275512695
1764808568.983326,2.977515635357797,1.3955115248352288,-2.094548559235036,-0.5991626977920532,-0.6739768385887146,-2.644183874130249,,,,,,
1764808568.990699,,,,,,,0.15112334489822388,0.6125185489654541,-0.05199115723371506,-0.9916811585426331,0.6685985922813416,2.494952917098999
1764808568.993378,2.8798499186366793,1.381637313261628,-1.9410659704849123,-0.5838257670402527,-0.3583492338657379,-2.4965360164642334,,,,,,
1764808569.000729,,,,,,,0.1611127257347107,0.6341991424560547,-0.054416537284851074,-0.7013987302780151,0.6655426025390625,2.4338107109069824
1764808569.00343,2.77148219063729,1.4957546908289194,-1.6783365328133106,-0.5710167288780212,-0.08583410084247589,-2.399885416030884,,,,,,
1764808569.010759,,,,,,,0.17023533582687378,0.6480661630630493,-0.06404000520706177,-0.42779386043548584,0.6191258430480957,2.3865156173706055
1764808569.013482,2.9056185661435125,1.4691419937133787,-1.5184189425796268,-0.5520989894866943,0.11823855340480804,-2.3505947589874268,,,,,,
1764808569.02079,,,,,,,0.1591147780418396,0.628367006778717,-0.08178579807281494,-0.2155689001083374,0.5747485160827637,2.343696117401123
1764808569.023534,3.3219983503475783,1.1714467488616704,-1.2955536055237054,-0.540763795375824,0.2495315968990326,-2.341794729232788,,,,,,
1764808569.03082,,,,,,,0.12585341930389404,0.5927370190620422,-0.12675213813781738,-0.04504803568124771,0.5760347843170166,2.3059585094451904
1764808569.033587,4.103448879539966,0.8144850760489701,-0.9646920041292906,-0.5447992086410522,0.3025575578212738,-2.34297776222229,,,,,,
1764808569.040851,,,,,,,0.09068650007247925,0.5858192443847656,-0.17720240354537964,0.09842278063297272,0.5754438638687134,2.2694504261016846
1764808569.043639,4.989081960001587,0.5046498960703611,-0.6820294932365417,-0.5435685515403748,0.29056426882743835,-2.313631772994995,,,,,,
1764808569.050881,,,,,,,0.07418084144592285,0.5895611643791199,-0.21796882152557373,0.20123544335365295,0.5603381395339966,2.2255027294158936
1764808569.053691,5.676448722612857,0.33260639923512936,-0.45544133626520633,-0.5381186604499817,0.24261195957660675,-2.219494342803955,,,,,,
1764808569.060911,,,,,,,0.06185352802276611,0.5724654197692871,-0.24702858924865723,0.24169674515724182,0.562780499458313,2.1668059825897217
1764808569.063743,6.031957858529687,0.23219956711232662,-0.37498423623740673,-0.5397498607635498,0.17582572996616364,-2.081371784210205,,,,,,
1764808569.070941,,,,,,,0.0534743070602417,0.5622826218605042,-0.26704949140548706,0.30954235792160034,0.5469456315040588,2.1257100105285645
1764808569.073795,5.976115559798479,0.16010113010704516,-0.42554654873907566,-0.5334386825561523,0.11576087772846222,-1.9304800033569336,,,,,,
1764808569.080971,,,,,,,0.04264622926712036,0.5668761730194092,-0.2880619764328003,0.40584084391593933,0.5416733622550964,2.082364797592163
1764808569.083848,5.684429784494638,0.19854513479173183,-0.36487843728661534,-0.5296058654785156,0.07158249616622925,-1.7824114561080933,,,,,,
1764808569.091001,,,,,,,0.049268364906311035,0.5872554183006287,-0.3236779570579529,0.4653419852256775,0.484319806098938,2.0484158992767334
1764808569.0939,5.269169651970267,0.1469628315925598,-0.16785656653940675,-0.5521323084831238,0.01547447219491005,-1.661728858947754,,,,,,
1764808569.101031,,,,,,,0.07613539695739746,0.5614452362060547,-0.3343580961227417,0.4625371992588043,0.3666568100452423,1.9770644903182983
1764808569.103952,4.868826518070698,-0.10027356113195418,-0.09662789810597897,-0.5809423923492432,-0.014199799858033657,-1.585947036743164,,,,,,
1764808569.111061,,,,,,,0.07833176851272583,0.5210354924201965,-0.34842634201049805,0.4052528440952301,0.23752999305725098,1.8563112020492554
1764808569.114004,4.734547226962447,-0.5263087701708078,0.02508475689589977,-0.6146380305290222,0.0065498389303684235,-1.5459206104278564,,,,,,
1764808569.121091,,,,,,,0.03633040189743042,0.5216155052185059,-0.3711857199668884,0.32037246227264404,0.1782190054655075,1.7405890226364136
1764808569.124056,4.880256843623519,-0.7544570160657167,0.12421148608028888,-0.6743966937065125,0.03667498379945755,-1.4983367919921875,,,,,,
1764808569.131121,,,,,,,-0.004693269729614258,0.5749284625053406,-0.3720968961715698,0.2845582962036133,0.16019605100154877,1.6886138916015625
1764808569.134109,5.128790874943137,-0.5160778835356236,-0.13097089721262453,-0.7342242002487183,0.07649064064025879,-1.399511694908142,,,,,,
1764808569.141151,,,,,,,-0.013167262077331543,0.5825777649879456,-0.35221314430236816,0.2371687889099121,0.10660552233457565,1.6131356954574585
1764808569.144161,5.3089978044897315,-0.1273047759205103,-0.6373761125177144,-0.7456915378570557,0.14150744676589966,-1.2642675638198853,,,,,,
1764808569.151182,,,,,,,-0.010308802127838135,0.5578696727752686,-0.32209134101867676,0.1451941281557083,0.0277171041816473,1.5190032720565796
1764808569.154213,5.321660886707901,0.05153729501366615,-0.9328133493095636,-0.719468891620636,0.21214863657951355,-1.1255838871002197,,,,,,
1764808569.161212,,,,,,,0.0026856660842895508,0.5487436652183533,-0.3080061674118042,0.06980160623788834,-0.06783818453550339,1.4328807592391968
1764808569.164265,5.233995462736487,-0.06856207957267761,-1.007673652243614,-0.699511706829071,0.2667900323867798,-1.014602780342102,,,,,,
1764808569.171242,,,,,,,0.010620534420013428,0.5915482640266418,-0.303295373916626,0.07458624243736267,-0.14749598503112793,1.349716305732727
1764808569.174317,5.285881717318296,-0.1348456928193569,-1.087815110450983,-0.7166300415992737,0.3073972165584564,-0.9266942739486694,,,,,,
1764808569.181272,,,,,,,0.002320706844329834,0.6509736776351929,-0.28436923027038574,0.1434597373008728,-0.17351719737052917,1.2480231523513794
1764808569.18437,5.444420420414209,0.21329086850285528,-1.3553116163939236,-0.7318990230560303,0.3465597927570343,-0.8380115032196045,,,,,,
1764808569.191302,,,,,,,-0.005315601825714111,0.6905104517936707,-0.2500368356704712,0.2196306586265564,-0.22239260375499725,1.1253783702850342
1764808569.194422,5.5810114955961705,0.6447095241457224,-1.6856471480876207,-0.6840975880622864,0.37913721799850464,-0.720219075679779,,,,,,
1764808569.201332,,,,,,,-0.01147603988647461,0.7131620049476624,-0.22809940576553345,0.29298314452171326,-0.2853907346725464,0.9804009795188904
1764808569.204474,5.678447202953696,0.6314788711726665,-1.8759464325815438,-0.5838972330093384,0.3627771735191345,-0.5864223837852478,,,,,,
1764808569.211362,,,,,,,-0.029825985431671143,0.7577261328697205,-0.21728873252868652,0.3999074697494507,-0.32927456498146057,0.8469310998916626
1764808569.214526,5.7863704020559785,0.27437808215022086,-2.0166332526445387,-0.4860052466392517,0.3264543414115906,-0.4422118663787842,,,,,,
1764808569.221392,,,,,,,-0.06171679496765137,0.7943344712257385,-0.20955240726470947,0.5238281488418579,-0.3424454927444458,0.7088555097579956
1764808569.224578,5.86637625118494,-0.03169686851203441,-2.125151495030522,-0.42447662353515625,0.3113158643245697,-0.2860448956489563,,,,,,
1764808569.231422,,,,,,,-0.10616755485534668,0.7992307543754578,-0.18235933780670166,0.6059581637382507,-0.3171769082546234,0.5424052476882935
1764808569.234631,5.843281206801533,-0.024874913537502288,-2.2614812889277935,-0.36452123522758484,0.3452216386795044,-0.12415844947099686,,,,,,
1764808569.241452,,,,,,,-0.13403260707855225,0.7849149107933044,-0.17315149307250977,0.6061611175537109,-0.30719563364982605,0.34636420011520386
1764808569.244683,5.6980877229690545,-0.041109424501657485,-2.392975917753577,-0.2853851318359375,0.3647782802581787,0.03343410789966583,,,,,,
1764808569.251482,,,,,,,-0.1475960612297058,0.7978566288948059,-0.1649230718612671,0.5869749188423157,-0.281158983707428,0.16273261606693268
1764808569.254735,5.641819892302155,0.1186941839635372,-2.4637182639747857,-0.20632313191890717,0.3375442326068878,0.20366518199443817,,,,,,
1764808569.261512,,,,,,,-0.13765913248062134,0.8222473859786987,-0.15149617195129395,0.5693060755729675,-0.28418272733688354,-0.01209565531462431
1764808569.264787,5.724064460268616,0.4154086010843515,-2.4948019690245387,-0.11952752619981766,0.25382667779922485,0.3901793956756592,,,,,,
1764808569.271543,,,,,,,-0.12043344974517822,0.7984486222267151,-0.13454210758209229,0.4683038294315338,-0.3351295292377472,-0.2514999806880951
1764808569.27484,5.743363619500398,0.4558025707930326,-2.4541379502028224,-0.001981242559850216,0.12018943578004837,0.5789646506309509,,,,,,
1764808569.281573,,,,,,,-0.11226803064346313,0.7429013848304749,-0.10891890525817871,0.2585943341255188,-0.4001285135746002,-0.5208611488342285
1764808569.284892,5.559260851559043,0.17789631451666355,-2.4250363588809964,0.11950896680355072,-0.047442980110645294,0.7591128349304199,,,,,,
1764808569.291603,,,,,,,-0.12067419290542603,0.6901817917823792,-0.0825037956237793,0.06314094364643097,-0.4295761287212372,-0.7619573473930359
1764808569.294944,5.128920638802647,0.1143856731146574,-2.5409166544675825,0.2363419532775879,-0.15000760555267334,0.9412022233009338,,,,,,
1764808569.301633,,,,,,,-0.13708525896072388,0.6664096713066101,-0.04211223125457764,-0.16689544916152954,-0.45756596326828003,-1.023317813873291
1764808569.304996,4.527497883197665,0.20747546022236346,-2.6160522672116753,0.3628831207752228,-0.12431716173887253,1.1360102891921997,,,,,,
1764808569.311663,,,,,,,-0.14945143461227417,0.679431676864624,-0.03549695014953613,-0.35386401414871216,-0.4570559561252594,-1.2809754610061646
1764808569.315048,3.983609617194533,0.10445873786211013,-2.526806296050548,0.4659922420978546,-0.06325055658817291,1.304482102394104,,,,,,
1764808569.321693,,,,,,,-0.16007649898529053,0.6905438303947449,-0.03649616241455078,-0.47459718585014343,-0.42688822746276855,-1.4715261459350586
1764808569.325101,3.7444402110695836,-0.02869768669605255,-2.540889181938767,0.5414451956748962,-0.013018284924328327,1.4453884363174438,,,,,,
1764808569.331723,,,,,,,-0.15099209547042847,0.6849857568740845,-0.020564794540405273,-0.5489449501037598,-0.38060006499290466,-1.6697074174880981
1764808569.335153,3.853950971624255,0.19139117138385772,-2.5241543202370402,0.5978405475616455,0.023601172491908073,1.5626024007797241,,,,,,
1764808569.341753,,,,,,,-0.1217241883277893,0.6678417921066284,-0.006190421059727669,-0.6156193614006042,-0.35273516178131104,-1.866328477859497
1764808569.345205,4.1649540263384575,0.5545394238770007,-2.3722341584980486,0.6607510447502136,-0.027413807809352875,1.6688257455825806,,,,,,
1764808569.351783,,,,,,,-0.07283413410186768,0.6097049713134766,0.006179928779602051,-0.7624216079711914,-0.3677689731121063,-2.07039737701416
1764808569.355257,4.321918611985445,0.745564100036025,-2.338871987122297,0.7583091259002686,-0.1706783026456833,1.784652829170227,,,,,,
1764808569.361813,,,,,,,-0.035717546939849854,0.5606890916824341,0.02601832151412964,-0.9321889877319336,-0.39780622720718384,-2.215369701385498
1764808569.365309,4.224862843856215,0.6666600746691227,-2.3306612081378697,0.8731470704078674,-0.3187186121940613,1.9114052057266235,,,,,,
1764808569.371843,,,,,,,-0.027486562728881836,0.5023692846298218,0.03615468740463257,-1.1083405017852783,-0.40575575828552246,-2.346544027328491
1764808569.375362,3.990810342353582,0.31417116335630413,-2.155305810275674,0.961626410484314,-0.4217774271965027,2.007373332977295,,,,,,
1764808569.381873,,,,,,,-0.053090035915374756,0.4702213406562805,0.028684191405773163,-1.2080731391906738,-0.34998172521591187,-2.4635396003723145
1764808569.385414,3.8371705172151325,-0.014316694644093513,-1.8765806388318538,1.0025992393493652,-0.4796460270881653,2.0549092292785645,,,,,,
1764808569.391904,,,,,,,-0.07220709323883057,0.48581069707870483,0.0013945028185844421,-1.174598217010498,-0.28277018666267395,-2.5515313148498535
1764808569.395466,3.8360289459645744,-0.15484627831876277,-1.5711264504164457,1.020337700843811,-0.5236483216285706,2.100243091583252,,,,,,
1764808569.401934,,,,,,,-0.07615959644317627,0.5204120874404907,-0.03537500649690628,-1.0238722562789917,-0.20539817214012146,-2.627796173095703
1764808569.405518,3.9555905604124066,-0.17436697134673595,-1.3194897769063711,0.9968923330307007,-0.6059762239456177,2.1436567306518555,,,,,,
1764808569.411964,,,,,,,-0.056429505348205566,0.547980546951294,-0.07522840052843094,-0.842267632484436,-0.16031910479068756,-2.6588339805603027
1764808569.41557,4.148160420186818,-0.029051322439312934,-1.3419757494807243,0.9387217164039612,-0.7775841355323792,2.183432102203369,,,,,,
1764808569.421994,,,,,,,-0.009673237800598145,0.5230966806411743,-0.08118748664855957,-0.7603031992912292,-0.12616325914859772,-2.705976724624634
1764808569.425623,4.143584782834351,0.7799111907958984,-1.793216126924753,0.9263646602630615,-0.9399320483207703,2.2414653301239014,,,,,,
1764808569.432024,,,,,,,0.06382036209106445,0.47354656457901,-0.01971203088760376,-0.701296329498291,-0.12549081444740295,-2.6812076568603516
1764808569.435675,3.841058172303438,1.9403262580335139,-2.1046172410458324,1.0137873888015747,-0.9779854416847229,2.370480537414551,,,,,,
1764808569.442054,,,,,,,0.1455206274986267,0.34763434529304504,0.027628175914287567,-0.6889113783836365,-0.17873193323612213,-2.709111213684082
1764808569.445727,3.1807980278044936,2.3281027558267113,-1.7953560615628956,1.104109287261963,-0.9694920778274536,2.476186752319336,,,,,,
1764808569.452084,,,,,,,0.17655467987060547,0.30249857902526855,0.026340067386627197,-0.7055856585502625,-0.2524503767490387,-2.710217237472534
1764808569.455779,2.647280641429126,1.8843495192676782,-1.1224375110208988,1.1095194816589355,-1.0127853155136108,2.466386556625366,,,,,,
1764808569.462114,,,,,,,0.19729763269424438,0.3212260901927948,-0.017749488353729248,-0.5702909231185913,-0.25064101815223694,-2.6472561359405518
1764808569.465831,2.6938988924801346,1.3035580482810736,-0.35491876880824563,1.0069217681884766,-1.1652212142944336,2.362849235534668,,,,,,
1764808569.472144,,,,,,,0.2194206714630127,0.3426194489002228,-0.08644407987594604,-0.4517855942249298,-0.3077450394630432,-2.5730504989624023
1764808569.475884,3.0912185869053004,1.1567331638544798,-0.03657528820335865,0.8641243577003479,-1.394149899482727,2.2469964027404785,,,,,,
1764808569.482174,,,,,,,0.25907713174819946,0.30942976474761963,-0.11942094564437866,-0.4208826422691345,-0.3973180651664734,-2.5767385959625244
1764808569.485936,3.2838051055535673,1.5540806230694055,-0.3668751640617847,0.7685152888298035,-1.5667682886123657,2.1789021492004395,,,,,,
1764808569.492204,,,,,,,0.2662268877029419,0.2688625454902649,-0.06795042753219604,-0.42485418915748596,-0.2962777316570282,-2.6023504734039307
1764808569.495988,2.8177354077681898,3.24800050946176,-1.2666791009560228,0.8338955640792847,-1.5091005563735962,2.22074031829834,,,,,,
1764808569.502234,,,,,,,0.28227055072784424,0.2700749337673187,0.08898375928401947,-0.24535861611366272,-0.15602289140224457,-2.5325474739074707
1764808569.50604,1.500197933973372,5.276996400073171,-1.8218600376069545,1.1173880100250244,-1.1514244079589844,2.4063563346862793,,,,,,
1764808569.512265,,,,,,,0.32797324657440186,0.24789807200431824,0.18456673622131348,-0.006279445253312588,-0.09983180463314056,-2.5923545360565186
1764808569.516092,-0.6238545137740671,5.9424669726967805,-1.3965589880615472,1.4302257299423218,-0.6720064282417297,2.609489679336548,,,,,,
1764808569.522295,,,,,,,0.330519437789917,0.2918248176574707,0.15422309935092926,0.2722679376602173,0.08909524232149124,-2.7409167289733887
1764808569.526145,-2.2236133305653927,5.327207414919138,-0.2096095496416092,1.6021668910980225,-0.2755235433578491,2.7038307189941406,,,,,,
1764808569.532325,,,,,,,0.34777963161468506,0.3690343499183655,0.1187812089920044,0.5907543301582336,0.2556685209274292,-2.863980531692505
1764808569.536197,-2.656903040777147,4.492757409206033,0.7505822204589844,1.6331627368927002,-0.056527599692344666,2.703082323074341,,,,,,
1764808569.542355,,,,,,,0.4269581437110901,0.3804742395877838,0.09999526292085648,0.893044114112854,0.2868216335773468,-3.010511875152588
1764808569.546249,-2.331170765095204,3.9474832418024537,0.8893810348182916,1.620837926864624,0.09091752022504807,2.668661594390869,,,,,,
1764808569.552385,,,,,,,0.4869793653488159,0.31311261653900146,0.12046057730913162,1.1054573059082031,0.3345353603363037,-3.1672563552856445
1764808569.556301,-1.4593071206584571,3.97723715955317,0.56773588231951,1.5961368083953857,0.2660708427429199,2.6543188095092773,,,,,,
1764808569.562415,,,,,,,0.5127321481704712,0.18694980442523956,0.12043637782335281,1.1340930461883545,0.311945378780365,-3.2553858757019043
1764808569.566353,-0.5672165346205235,4.052817593455314,0.2730944720804691,1.6023012399673462,0.37566256523132324,2.674992799758911,,,,,,
1764808569.572445,,,,,,,0.5361028909683228,0.0028467923402786255,0.11122191697359085,0.940606951713562,0.2256975620985031,-3.299908399581909
1764808569.576406,-0.09514138587526977,3.667286244240403,0.04315349754989147,1.6302272081375122,0.3866193890571594,2.69551944732666,,,,,,
1764808569.582475,,,,,,,0.5245847105979919,-0.11038991808891296,0.12405365705490112,0.7742524147033691,0.16854533553123474,-3.2529189586639404
1764808569.586458,-0.01423486157953739,3.148376352149248,-0.19086685524880884,1.6549980640411377,0.4031067490577698,2.6883087158203125,,,,,,
1764808569.592505,,,,,,,0.46921491622924805,-0.11406198143959045,0.12506479024887085,0.7761797904968262,0.20007556676864624,-3.1680355072021484
1764808569.59651,-0.08259458698052913,2.943661588811874,-0.036811142785847184,1.6337337493896484,0.4269857108592987,2.6642379760742188,,,,,,
1764808569.602535,,,,,,,0.41183340549468994,-0.05409804731607437,0.12194550782442093,0.899286687374115,0.28909972310066223,-3.135416030883789
1764808569.606562,-0.17455281277503817,3.28571093917489,0.44106823525875805,1.5747202634811401,0.41510429978370667,2.643122434616089,,,,,,
1764808569.612565,,,,,,,0.4194601774215698,0.011428657919168472,0.10118157416582108,1.063836932182312,0.4064710736274719,-3.1334660053253174
1764808569.616614,-0.19234262688979506,4.277619451531768,0.934923765592277,1.5092724561691284,0.3129703402519226,2.6572346687316895,,,,,,
1764808569.622596,,,,,,,0.5189144611358643,0.03537793830037117,0.07251555472612381,1.106273889541626,0.32066401839256287,-3.154693841934204
1764808569.626667,-0.4169153889181092,4.981674314093589,1.1108791751742362,1.5068175792694092,0.09930280596017838,2.723245143890381,,,,,,
1764808569.632626,,,,,,,0.6359245181083679,-0.029234258458018303,0.08626241236925125,0.9398676156997681,0.04993532598018646,-3.1760754585266113
1764808569.636719,-1.0908621499966829,4.523294001767039,0.9468146943941712,1.5624356269836426,-0.14807501435279846,2.7805612087249756,,,,,,
1764808569.642656,,,,,,,0.6444882154464722,-0.17942985892295837,0.13496524095535278,0.5912031531333923,-0.1561906784772873,-3.19161319732666
1764808569.646771,-1.8360571975246072,3.3175966082572934,0.6813815507218242,1.6173018217086792,-0.3045511841773987,2.740933418273926,,,,,,
1764808569.652686,,,,,,,0.5195664167404175,-0.2939402759075165,0.1934223175048828,0.23811431229114532,-0.15745647251605988,-3.1227669715881348
1764808569.656823,-2.19974189498201,2.127320655763149,0.516265515062213,1.6461507081985474,-0.30635038018226624,2.6020967960357666,,,,,,
1764808569.662716,,,,,,,0.34398752450942993,-0.3442728519439697,0.22164368629455566,-0.08742757141590118,-0.05610455572605133,-3.046449899673462
1764808569.666875,-2.2335237530745564,1.1754676749408244,0.48095922388136386,1.644750714302063,-0.21360871195793152,2.406172037124634,,,,,,
1764808569.672746,,,,,,,0.20936423540115356,-0.3251994252204895,0.19962620735168457,-0.2640054523944855,0.13516420125961304,-2.9755163192749023
1764808569.676928,-2.040998463094234,0.581632013463974,0.5165946008861064,1.6024245023727417,-0.10722412168979645,2.205204725265503,,,,,,
1764808569.682776,,,,,,,0.15326863527297974,-0.2562620937824249,0.14726054668426514,-0.23704394698143005,0.3727613091468811,-2.8735342025756836
1764808569.68698,-1.623373939526081,0.9384107309252023,0.832738233359158,1.5089094638824463,-0.04789341613650322,2.06545352935791,,,,,,
1764808569.692806,,,,,,,0.19685131311416626,-0.15498264133930206,0.09897959977388382,0.027532057836651802,0.619551420211792,-2.788888931274414
1764808569.697032,-1.1047371652878821,2.6349352468580007,1.2263830386638641,1.3769770860671997,-0.03914294391870499,2.0349338054656982,,,,,,
1764808569.702836,,,,,,,0.35717618465423584,-0.0677606463432312,0.0317499041557312,0.3550764322280884,0.6390441060066223,-2.758543014526367
1764808569.707084,-0.9121331109829246,4.40853832629621,1.1615981395423411,1.3261104822158813,-0.09529702365398407,2.1165053844451904,,,,,,
1764808569.712866,,,,,,,0.5523988604545593,-0.0448777973651886,0.009989134967327118,0.5959880948066711,0.41539266705513,-2.796497106552124
1764808569.717136,-1.321717535958439,5.035044085231423,0.9315370457634329,1.3923298120498657,-0.18611767888069153,2.2643871307373047,,,,,,
1764808569.722896,,,,,,,0.6432428956031799,-0.0751027762889862,0.04895055294036865,0.7787750363349915,0.19401900470256805,-2.822052478790283
1764808569.727189,-2.1701962131544947,4.608707847419381,0.8573848910987376,1.5061876773834229,-0.2577178180217743,2.3854050636291504,,,,,,
1764808569.732926,,,,,,,0.6014897227287292,-0.13053318858146667,0.09244918823242188,0.8713380098342896,0.08408370614051819,-2.820706605911255
1764808569.737241,-2.8985633869349954,3.7167753745526073,1.0252652769051491,1.593999981880188,-0.2696654796600342,2.427727699279785,,,,,,
1764808569.742957,,,,,,,0.4835476279258728,-0.18458235263824463,0.14210361242294312,0.8020182251930237,0.0770079493522644,-2.826463460922241
