timestamp,phone_accel_x,phone_accel_y,phone_accel_z,phone_gyro_x,phone_gyro_y,phone_gyro_z,watch_accel_x,watch_accel_y,watch_accel_z,watch_gyro_x,watch_gyro_y,watch_gyro_z
1764808553.069531,-0.46397272550612684,2.417361586469412,0.9980582671582698,1.3896267414093018,0.1566684991121292,1.6216769218444824,,,,,,
1764808553.072933,,,,,,,0.25134092569351196,0.01590663194656372,0.0025631189346313477,0.5780764222145081,0.9346004128456116,-2.2673323154449463
1764808553.079583,-0.285434459824115,2.88083776063025,0.878587545864284,1.4260246753692627,0.01442347839474678,1.6516926288604736,,,,,,
1764808553.082963,,,,,,,0.39775651693344116,-0.02534767985343933,0.021166324615478516,0.6636661291122437,0.7080245614051819,-2.2620835304260254
1764808553.089635,-0.41321693625897166,2.725603359776735,0.8338333351194858,1.4942066669464111,-0.10595592856407166,1.7010746002197266,,,,,,
1764808553.092993,,,,,,,0.428463876247406,-0.0759919285774231,0.0651470422744751,0.6753942966461182,0.5709883570671082,-2.1509926319122314
1764808553.099687,-0.6757838768452405,2.1201830589681863,1.105280916775763,1.5622097253799438,-0.2141951322555542,1.7336678504943848,,,,,,
1764808553.103023,,,,,,,0.34799426794052124,-0.13580383360385895,0.07243466377258301,0.6451075077056885,0.5307016968727112,-2.1965906620025635
1764808553.109739,-0.9936669003315269,1.3635200572907924,1.4355813771560788,1.5935863256454468,-0.3373633623123169,1.7254217863082886,,,,,,
1764808553.113053,,,,,,,0.22767603397369385,-0.15882191061973572,0.07640612125396729,0.614179253578186,0.5963097214698792,-2.2575230598449707
1764808553.119792,-1.3115228896804154,0.8024538619935512,1.5250044584497808,1.5969985723495483,-0.4662603735923767,1.6677607297897339,,,,,,
1764808553.123084,,,,,,,0.16358822584152222,-0.18248876929283142,0.054193317890167236,0.45534971356391907,0.6730889081954956,-2.244161367416382
1764808553.129844,-1.5202863438867031,0.5095107801049947,1.5089512954019009,1.5682140588760376,-0.5543241500854492,1.5655993223190308,,,,,,
1764808553.133114,,,,,,,0.16899412870407104,-0.2442493438720703,0.008379761129617691,0.22014905512332916,0.7114824056625366,-2.2264962196350098
1764808553.139896,-1.5083398855052887,0.44636780297160145,1.5029624302506446,1.4838964939117432,-0.5734608173370361,1.4463492631912231,,,,,,
1764808553.143144,,,,,,,0.2088479995727539,-0.3090980350971222,-0.024775028228759766,-0.08060544729232788,0.6959792971611023,-2.148524761199951
1764808553.149948,-1.2116612703502176,0.6346779594749212,1.4029565801441668,1.3824020624160767,-0.5591068863868713,1.3408267498016357,,,,,,
1764808553.153174,,,,,,,0.25207698345184326,-0.3157343566417694,-0.028913378715515137,-0.2472444325685501,0.6207807064056396,-2.0057687759399414
1764808553.16,-0.9788380183815956,0.931995603185892,1.3609654043719173,1.2946945428848267,-0.5365187525749207,1.269304871559143,,,,,,
1764808553.163204,,,,,,,0.2780994176864624,-0.2944226861000061,-0.052397191524505615,-0.21530407667160034,0.5584110617637634,-1.9191950559616089
1764808553.170052,-0.9627914312049746,1.209049626547098,1.476937177634239,1.2012159824371338,-0.5319970846176147,1.2182726860046387,,,,,,
1764808553.173234,,,,,,,0.2848990559577942,-0.2460436224937439,-0.09078800678253174,-0.0941261574625969,0.4921702742576599,-1.8295174837112427
1764808553.180104,-1.095939380195737,1.277750822329521,1.4960546966888009,1.1236211061477661,-0.5283064842224121,1.1852740049362183,,,,,,
1764808553.183264,,,,,,,0.29416340589523315,-0.20455113053321838,-0.10460031032562256,0.020676057785749435,0.3781435787677765,-1.7099742889404297
1764808553.190156,-1.2795832984536886,1.1116712023347615,1.4552480545260011,1.0774012804031372,-0.5084630846977234,1.174391269683838,,,,,,
1764808553.193294,,,,,,,0.28217923641204834,-0.18857717514038086,-0.09670567512512207,0.07286222279071808,0.2900296747684479,-1.611146330833435
1764808553.200208,-1.5001616936162114,0.8406804245352745,1.453544611608982,1.0360682010650635,-0.44710972905158997,1.1606853008270264,,,,,,
1764808553.203324,,,,,,,0.241749107837677,-0.21524009108543396,-0.08513796329498291,0.023061642423272133,0.2365315705537796,-1.551011562347412
1764808553.21026,-1.7114289473369717,0.4542863210111856,1.420023596409708,0.9892551302909851,-0.34325674176216125,1.1261955499649048,,,,,,
1764808553.213354,,,,,,,0.19318091869354248,-0.2652493119239807,-0.060757994651794434,-0.10849475115537643,0.19911788403987885,-1.4900126457214355
1764808553.220312,-1.872490154647827,-0.07446691970229148,1.2325193494617939,0.9442431926727295,-0.19125443696975708,1.0509310960769653,,,,,,
1764808553.223385,,,,,,,0.1371108889579773,-0.2952028512954712,-0.035533905029296875,-0.2704588770866394,0.1875123679637909,-1.3916128873825073
1764808553.230365,-1.8855182707861065,-0.520140895190835,1.014617845358327,0.9182409048080444,-0.015096278861165047,0.9514465928077698,,,,,,
1764808553.233415,,,,,,,0.07767099142074585,-0.2871277332305908,-0.0222855806350708,-0.3229179382324219,0.2262062281370163,-1.2896552085876465
1764808553.240417,-1.6934525611415505,-0.45486908933520315,1.3477040639996527,0.8543354272842407,0.1357789784669876,0.8543354868888855,,,,,,
1764808553.243445,,,,,,,0.036642491817474365,-0.262858122587204,-0.04183793067932129,-0.23508396744728088,0.45599016547203064,-1.192996621131897
1764808553.250469,-1.2677031833067536,0.3994844712436199,1.7182476874411106,0.7252041101455688,0.17609919607639313,0.7702486515045166,,,,,,
1764808553.253475,,,,,,,0.07295560836791992,-0.20445656776428223,-0.08846008777618408,-0.020621024072170258,0.585490345954895,-1.0744092464447021
1764808553.260521,-0.9018313510686159,1.0094728106200694,1.5101111329615116,0.6470720171928406,0.135557621717453,0.7223354578018188,,,,,,
1764808553.263505,,,,,,,0.1911119818687439,-0.16677722334861755,-0.11313498020172119,0.24696780741214752,0.4245307743549347,-1.0092084407806396
1764808553.270573,-0.7904471978574991,1.071565401917696,1.2936065631091593,0.6251252889633179,0.07444998621940613,0.7010626792907715,,,,,,
1764808553.273535,,,,,,,0.26546168327331543,-0.15951085090637207,-0.10098302364349365,0.42403292655944824,0.238987535238266,-0.901482343673706
1764808553.280625,-0.8658359085798263,0.9234329420238733,1.1324855153698474,0.6060195565223694,0.06238053739070892,0.688992440700531,,,,,,
1764808553.283565,,,,,,,0.25773853063583374,-0.19308063387870789,-0.0671842098236084,0.47279754281044006,0.14356595277786255,-0.7684651613235474
1764808553.290677,-1.05650694899559,0.5619359638690948,1.1740671604931354,0.576181948184967,0.07546800374984741,0.6714861989021301,,,,,,
1764808553.293595,,,,,,,0.18579941987991333,-0.25149065256118774,-0.041826847940683365,0.40682774782180786,0.14028041064739227,-0.7046046853065491
1764808553.300729,-1.341090491078794,0.19519290175437926,1.2288345234692095,0.5392945408821106,0.0950225293636322,0.6184434294700623,,,,,,
1764808553.303625,,,,,,,0.1090688705444336,-0.2764739990234375,-0.016988515853881836,0.28265252709388733,0.18204224109649658,-0.653805673122406
1764808553.310781,-1.627562623387575,-0.04578676866292953,1.2344424264788627,0.5139316916465759,0.14129149913787842,0.53807532787323,,,,,,
1764808553.313655,,,,,,,0.07424724102020264,-0.27634626626968384,-0.010199669748544693,0.16409020125865936,0.2223566323518753,-0.5931099653244019
1764808553.320833,-1.756936314536631,-0.16266893476843833,1.1931085455715655,0.49426349997520447,0.21046417951583862,0.46157389879226685,,,,,,
1764808553.323686,,,,,,,0.0592460036277771,-0.2532021999359131,-0.008632179349660873,0.08342545479536057,0.23533794283866882,-0.5394967794418335
1764808553.330885,-1.730889726871252,-0.19565993474423884,1.0359352856099604,0.46859467029571533,0.29539936780929565,0.39543551206588745,,,,,,
1764808553.333716,,,,,,,0.050550222396850586,-0.2257370948791504,-0.014330865815281868,0.1102723479270935,0.2512889504432678,-0.4809957444667816
1764808553.340937,-1.5723051388069986,-0.1186860006570816,0.8945417785823344,0.4373086392879486,0.3989015221595764,0.34554705023765564,,,,,,
1764808553.343746,,,,,,,0.0484500527381897,-0.1960781216621399,-0.026702169328927994,0.23688915371894836,0.3033660054206848,-0.40240028500556946
1764808553.35099,-1.317816875258088,0.1256447337538004,1.0025848046720027,0.3756362497806549,0.4928997755050659,0.3101058304309845,,,,,,
1764808553.353776,,,,,,,0.057644665241241455,-0.15631335973739624,-0.05582797899842262,0.44354909658432007,0.38076892495155334,-0.315689355134964
1764808553.361042,-1.0407038151860237,0.41234278377294536,1.0315502023935317,0.2874813377857208,0.5318290591239929,0.2806169092655182,,,,,,
1764808553.363806,,,,,,,0.09430897235870361,-0.12165290117263794,-0.07606494426727295,0.64902663230896,0.3786333203315735,-0.22759199142456055
1764808553.371094,-0.7869459117382764,0.7250012044787406,0.9860369899749756,0.2004421055316925,0.5038750767707825,0.2567097246646881,,,,,,
1764808553.373836,,,,,,,0.15768665075302124,-0.11470603942871094,-0.08355963230133057,0.811298131942749,0.30944305658340454,-0.153608500957489
1764808553.381146,-0.6167199857190251,0.8769839100599288,0.9118962334871291,0.13740934431552887,0.42784905433654785,0.23676477372646332,,,,,,
1764808553.383866,,,,,,,0.20672094821929932,-0.14538216590881348,-0.0642169713973999,0.8381467461585999,0.17465223371982574,-0.08435487002134323
1764808553.391198,-0.5828299910768866,0.8097937033623457,0.8382043898105621,0.10555638372898102,0.3298726975917816,0.221192866563797,,,,,,
1764808553.393896,,,,,,,0.20585155487060547,-0.19546693563461304,-0.02631569281220436,0.7406885027885437,0.05891017988324165,-0.053998831659555435
1764808553.40125,-0.6886682005986571,0.6846463977366686,0.887826791113615,0.08529478311538696,0.22145619988441467,0.19438575208187103,,,,,,
1764808553.403926,,,,,,,0.1610737442970276,-0.24563366174697876,0.019369840621948242,0.5273474454879761,0.03775562718510628,-0.02731635421514511
1764808553.411302,-0.8633779940336942,0.6025742637276649,0.9022481151759624,0.07415823638439178,0.1064000278711319,0.1383550763130188,,,,,,
1764808553.413957,,,,,,,0.11086416244506836,-0.26766812801361084,0.05809736251831055,0.27737829089164734,0.03196591138839722,-0.02375384233891964
1764808553.421354,-1.058309029981494,0.539531239837408,0.9461644137918949,0.08346331864595413,-0.019499316811561584,0.06314022094011307,,,,,,
1764808553.423987,,,,,,,0.08540135622024536,-0.2600030303001404,0.05539047718048096,-0.0011830339208245277,0.03819877654314041,-0.009002593345940113
1764808553.431406,-1.0618632153317331,0.5167354706615209,1.0286509738206864,0.08808396756649017,-0.1437966525554657,0.001380267320200801,,,,,,
1764808553.434017,,,,,,,0.08355510234832764,-0.25856083631515503,0.041219472885131836,-0.19880899786949158,0.05878368020057678,-0.014381379820406437
1764808553.441458,-1.0305939245820044,0.4805681787371635,0.9830103356301784,0.08309134095907211,-0.22783349454402924,-0.038472872227430344,,,,,,
1764808553.444047,,,,,,,0.08908110857009888,-0.2267856001853943,0.03112948127090931,-0.2981986701488495,0.05216625705361366,-0.002034698612987995
1764808553.45151,-1.0652701011657715,0.4705430438071489,0.8713865284442901,0.07505770772695541,-0.25651827454566956,-0.06737900525331497,,,,,,
1764808553.454077,,,,,,,0.09604817628860474,-0.18343961238861084,0.016016123816370964,-0.28715625405311584,0.037625931203365326,0.013850457966327667
1764808553.461563,-1.1398980566486716,0.5346814617186785,0.7398316938638687,0.06447430700063705,-0.23611953854560852,-0.08393215388059616,,,,,,
1764808553.464107,,,,,,,0.09983515739440918,-0.1467372179031372,0.0028769951313734055,-0.2230939418077469,0.030923550948500633,0.04707951471209526
1764808553.471615,-1.235234453639388,0.5424737230300903,0.7243886255383492,0.05302942171692848,-0.1798085868358612,-0.09541796892881393,,,,,,
1764808553.474137,,,,,,,0.09889131784439087,-0.13242095708847046,-0.010603904724121094,-0.14486660063266754,0.04365532472729683,0.08958064019680023
1764808553.481667,-1.3439037949338555,0.5149322206318379,0.7333119367063045,0.03214650973677635,-0.10853280127048492,-0.10786958038806915,,,,,,
1764808553.484167,,,,,,,0.09328031539916992,-0.1228560209274292,-0.013067245483398438,-0.07628301531076431,0.05781855061650276,0.13306793570518494
1764808553.491719,-1.3934353030830622,0.49948622969686984,0.6524328118741511,0.008068213239312172,-0.009397989138960838,-0.125824436545372,,,,,,
1764808553.494197,,,,,,,0.09311479330062866,-0.11534297466278076,-0.007539510726928711,0.009787795133888721,0.04997287690639496,0.17323724925518036
1764808553.501771,-1.3893167618483304,0.5010737911492585,0.5709925460278987,-0.00652218097820878,0.10252055525779724,-0.14731961488723755,,,,,,
1764808553.504227,,,,,,,0.09315651655197144,-0.11315262317657471,-0.004334211349487305,0.07285650819540024,0.04641116410493851,0.204830601811409
1764808553.511823,-1.2858154708415268,0.47137715654373163,0.5721849706828593,-0.005780132487416267,0.20117710530757904,-0.16265280544757843,,,,,,
1764808553.514258,,,,,,,0.08251839876174927,-0.11084318161010742,0.0029635410755872726,0.12154300510883331,0.06057838350534439,0.23911547660827637
1764808553.521875,-1.171222000195086,0.4156131837457418,0.6035854865968227,-0.002980351448059082,0.2804809808731079,-0.17165188491344452,,,,,,
1764808553.524288,,,,,,,0.06753212213516235,-0.1084335446357727,0.010988948866724968,0.17048978805541992,0.08730906248092651,0.26013633608818054
1764808553.531927,-1.039753967115283,0.33783903919160363,0.5753472341060638,0.004406113177537918,0.33964112401008606,-0.1784994900226593,,,,,,
1764808553.534318,,,,,,,0.05483061075210571,-0.10307502746582031,0.011962294578552246,0.23907370865345,0.11128629744052887,0.2659139037132263
1764808553.541979,-0.9242948195502162,0.3444879756867885,0.562870029848814,0.01506621390581131,0.37683138251304626,-0.18465085327625275,,,,,,
1764808553.544348,,,,,,,0.04729759693145752,-0.08569151163101196,0.015639541670680046,0.3092602491378784,0.1329665631055832,0.26290374994277954
1764808553.552031,-0.7558978625237941,0.39706279705464836,0.5361433509647846,0.03587842732667923,0.3907117545604706,-0.1704254150390625,,,,,,
1764808553.554378,,,,,,,0.039609313011169434,-0.060878098011016846,0.016573190689086914,0.38263559341430664,0.1586327850818634,0.2623233199119568
1764808553.562084,-0.6972130338430405,0.37476620957255363,0.4896434655964374,0.06960868835449219,0.3940151333808899,-0.14283400774002075,,,,,,
1764808553.564408,,,,,,,0.03634923696517944,-0.04339778423309326,0.015215519815683365,0.42884835600852966,0.1858537495136261,0.22953501343727112
1764808553.572136,-0.7333323949724435,0.2760591671049595,0.498601848077774,0.10515438765287399,0.39486071467399597,-0.11701244860887527,,,,,,
1764808553.574438,,,,,,,0.031879425048828125,-0.041717708110809326,0.022324800491333008,0.41527554392814636,0.20323380827903748,0.18065935373306274
1764808553.582188,-0.7954051125258207,0.21609715809524058,0.47635260686874387,0.1288413405418396,0.39984801411628723,-0.09841000288724899,,,,,,
1764808553.584468,,,,,,,0.02483046054840088,-0.05137372016906738,0.03351998329162598,0.3567163646221161,0.22088736295700073,0.14455381035804749
1764808553.59224,-0.823338536851108,0.23647534473538398,0.40251930889487264,0.14415954053401947,0.41040265560150146,-0.08438964933156967,,,,,,
1764808553.594498,,,,,,,0.02095043659210205,-0.05430328845977783,0.027289632707834244,0.31156569719314575,0.24936267733573914,0.11161942780017853
1764808553.602292,-0.7652776852875948,0.2833212670624256,0.32732173683047294,0.1521466225385666,0.4304730296134949,-0.07586885988712311,,,,,,
1764808553.604528,,,,,,,0.02401512861251831,-0.05166512727737427,0.017434239387512207,0.31236329674720764,0.2610211968421936,0.06902003288269043
1764808553.612344,-0.6098574064731598,0.29741350530087945,0.26720013507856055,0.15523278713226318,0.45225951075553894,-0.06687797605991364,,,,,,
1764808553.614559,,,,,,,0.03490990400314331,-0.03616076707839966,0.013408064842224121,0.33079007267951965,0.24613307416439056,0.05675984174013138
1764808553.622396,-0.4661687742456794,0.27531974691450595,0.19241876086592674,0.15423622727394104,0.47107288241386414,-0.05968930944800377,,,,,,
1764808553.624589,,,,,,,0.046993255615234375,-0.024410545825958252,0.011638283729553223,0.3804316520690918,0.21995152533054352,0.059455495327711105
1764808553.632448,-0.3457110877409577,0.24710896695256232,0.1744610793709755,0.1499386429786682,0.48308005928993225,-0.051912277936935425,,,,,,
1764808553.634619,,,,,,,0.04779726266860962,-0.035085320472717285,0.008305428549647331,0.4038703739643097,0.20448149740695953,0.05403369665145874
1764808553.6425,-0.2278080541551113,0.23710078315734862,0.2580781412670389,0.13154631853103638,0.4749020040035248,-0.04923446848988533,,,,,,
1764808553.644649,,,,,,,0.04334712028503418,-0.05063939094543457,0.004710312932729721,0.39166751503944397,0.20518164336681366,0.06102050095796585
1764808553.652552,-0.11538637458980083,0.2761749024391174,0.28019528052899983,0.11300477385520935,0.42643487453460693,-0.05456850305199623,,,,,,
1764808553.654679,,,,,,,0.042463600635528564,-0.05721229314804077,0.004519578069448471,0.3589881956577301,0.20225775241851807,0.07599139213562012
1764808553.662604,0.008327975623309612,0.2716752529323101,0.2078442935347557,0.10437693446874619,0.3524474799633026,-0.06426693499088287,,,,,,
1764808553.664709,,,,,,,0.04672795534133911,-0.04852515459060669,0.009692784398794174,0.3568688631057739,0.1846476048231125,0.07949025183916092
1764808553.672657,0.07133300559073687,0.285239667904377,0.16974513849867506,0.10268324613571167,0.2792283892631531,-0.07949170470237732,,,,,,
1764808553.674739,,,,,,,0.04813742637634277,-0.04547232389450073,0.014245271682739258,0.3324463367462158,0.1620674580335617,0.07778369635343552
1764808553.682709,0.05491437023133039,0.2702092720329761,0.14221998444702474,0.09667754918336868,0.22222183644771576,-0.09633593261241913,,,,,,
1764808553.684769,,,,,,,0.045556485652923584,-0.04748743772506714,0.02267908677458763,0.2592024803161621,0.14424718916416168,0.08688345551490784
1764808553.692761,0.02938128504604101,0.24751813227534292,0.0635609468171373,0.08727145940065384,0.18825788795948029,-0.11130032688379288,,,,,,
1764808553.694799,,,,,,,0.04130178689956665,-0.05654573440551758,0.024726267904043198,0.15536728501319885,0.13367816805839539,0.11444730311632156
1764808553.702813,-0.0007645546317100524,0.17424188366234303,0.05043258517477661,0.07923270761966705,0.17014653980731964,-0.1282193958759308,,,,,,
1764808553.704829,,,,,,,0.036699891090393066,-0.06170159578323364,0.017760630697011948,0.08192022889852524,0.1270114630460739,0.12491273134946823
1764808553.712865,-0.02529927642941475,0.10254092154204845,0.11074004662130027,0.06502185761928558,0.15427148342132568,-0.14784179627895355,,,,,,
1764808553.71486,,,,,,,0.03259342908859253,-0.06121790409088135,0.01286279782652855,0.04333394393324852,0.12288036942481995,0.12775690853595734
1764808553.722917,-0.029970483110845086,0.07604629784822464,0.14106036608312278,0.050948385149240494,0.1409948319196701,-0.16784320771694183,,,,,,
1764808553.72489,,,,,,,0.02871859073638916,-0.0362321138381958,0.010338300839066505,0.05085497722029686,0.11010652035474777,0.14609277248382568
1764808553.732969,-0.06270750832557678,0.05214402873516082,0.06811784293651581,0.03900255635380745,0.1303270161151886,-0.18588733673095703,,,,,,
1764808553.73492,,,,,,,0.024361789226531982,-0.016791701316833496,0.0050001125782728195,0.08110102266073227,0.10111381858587265,0.16400086879730225
1764808553.743021,-0.06101794780343771,-0.0008183306455612182,0.08933481848835945,0.029223958030343056,0.12689660489559174,-0.19487763941287994,,,,,,
1764808553.74495,,,,,,,0.0178910493850708,-0.015405237674713135,-0.005039334297180176,0.08850647509098053,0.10047119855880737,0.1671958714723587
1764808553.753073,-0.03909486980885267,-0.08277180671095848,0.20013795694112776,0.010232534259557724,0.12163805961608887,-0.2029755562543869,,,,,,
1764808553.75498,,,,,,,0.011164367198944092,-0.03379178047180176,-0.007921934127807617,0.04376830533146858,0.10763616859912872,0.17536863684654236
1764808553.763125,-0.03075724957436323,-0.054988312250375745,0.1883305965031497,-0.00599277438595891,0.11484859138727188,-0.2134987711906433,,,,,,
1764808553.76501,,,,,,,0.008958816528320312,-0.03807532787322998,-0.0004715919494628906,0.004095462150871754,0.1069493368268013,0.19911658763885498
1764808553.773178,-0.041354339173436165,-0.006536708292365074,0.08207860028240829,-0.005287760403007269,0.11469440907239914,-0.22110770642757416,,,,,,
1764808553.77504,,,,,,,0.013127028942108154,-0.032102763652801514,-0.0024391449987888336,0.019780252128839493,0.08737723529338837,0.21247659623622894
1764808553.78323,-0.05746083984375,-0.06272738206982613,0.08776477442635222,-0.0024741305969655514,0.12161383777856827,-0.23091904819011688,,,,,,
1764808553.78507,,,,,,,0.01307898759841919,-0.024189352989196777,-0.006544001400470734,0.04598335921764374,0.07281027734279633,0.2221401482820511
1764808553.793282,-0.06884644947201013,-0.15016893415749072,0.12690554746985436,-0.0058081126771867275,0.14345857501029968,-0.23799201846122742,,,,,,
1764808553.7951,,,,,,,0.002908468246459961,-0.019892573356628418,-0.004190333187580109,0.06651618331670761,0.07394532114267349,0.25193625688552856
1764808553.803334,-0.09716916537582873,-0.22188509384691715,0.1479670219327323,-0.00778071628883481,0.17173628509044647,-0.24155744910240173,,,,,,
1764808553.805131,,,,,,,-0.005927085876464844,-0.0214349627494812,-0.004974365234375,0.09576062113046646,0.08712690323591232,0.270129919052124
1764808553.813386,-0.17890110764503478,-0.3007715835571289,0.1849357116341591,-0.013711325824260712,0.20459435880184174,-0.2493961751461029,,,,,,
1764808553.815161,,,,,,,-0.01678752899169922,-0.02505338191986084,-0.009836431592702866,0.12946707010269165,0.11449034512042999,0.2740699350833893
1764808553.823438,-0.2423737551242113,-0.3056435735076666,0.2298772981772199,-0.01989092491567135,0.2417883425951004,-0.2628781497478485,,,,,,
1764808553.825191,,,,,,,-0.023246467113494873,-0.01768815517425537,-0.011299725621938705,0.16299626231193542,0.14370682835578918,0.2977166771888733
1764808553.83349,-0.2441600540190935,-0.23066695071756838,0.19861472942922262,-0.020477846264839172,0.2881215512752533,-0.27421891689300537,,,,,,
1764808553.835221,,,,,,,-0.021189451217651367,-0.015907585620880127,-0.010095477104187012,0.20703253149986267,0.16375191509723663,0.3109421730041504
1764808553.843542,-0.22755729426443574,-0.14377484920620917,0.205495684581995,-0.01890391670167446,0.32873207330703735,-0.2769950032234192,,,,,,
1764808553.845251,,,,,,,-0.016366183757781982,-0.01456192135810852,-0.010805368423461914,0.2521137297153473,0.17625385522842407,0.3232326805591583
1764808553.853594,-0.2079685044363141,-0.0855856950879097,0.22754852643609044,-0.013829382136464119,0.3626420497894287,-0.2756054103374481,,,,,,
1764808553.855281,,,,,,,-0.009487450122833252,-0.009018540382385254,-0.009277697652578354,0.3114064037799835,0.18487876653671265,0.3339841961860657
1764808553.863646,-0.2045741858229041,-0.023510054925084112,0.2620949026277289,-0.004965049680322409,0.3928167223930359,-0.2722295820713043,,,,,,
1764808553.865311,,,,,,,-0.001941382884979248,-0.0050206780433654785,-0.009931918233633041,0.36807981133461,0.18861810863018036,0.33664947748184204
1764808553.873698,-0.23766864617317915,-0.001050970357656479,0.3064660323390737,0.007595333736389875,0.4160022735595703,-0.26012492179870605,,,,,,
1764808553.875341,,,,,,,0.004478335380554199,-0.007273346185684204,-0.010102629661560059,0.40119844675064087,0.18820132315158844,0.332044780254364
1764808553.883751,-0.34436844096034763,-0.027040567138791084,0.34164603025913237,0.017009874805808067,0.4501818120479584,-0.25647854804992676,,,,,,
1764808553.885371,,,,,,,0.004508674144744873,-0.01958221197128296,-0.004059311002492905,0.4057524800300598,0.19388212263584137,0.3289265036582947
1764808553.893803,-0.4107715889334678,-0.04707037873268127,0.30234277839660645,0.031412024050951004,0.4902153015136719,-0.26108258962631226,,,,,,
1764808553.895401,,,,,,,-0.00010329484939575195,-0.02547585964202881,-0.0017046891152858734,0.39353516697883606,0.20595502853393555,0.3358907401561737
1764808553.903855,-0.37690263707935806,-0.07286357615888119,0.33685408327486366,0.042371466755867004,0.527791440486908,-0.2605169415473938,,,,,,
1764808553.905432,,,,,,,-0.0022168755531311035,-0.03429797291755676,-0.0073326826095581055,0.3886389434337616,0.23250700533390045,0.322234570980072
1764808553.913907,-0.32505086928904053,-0.10712357315719127,0.375084152947925,0.03393302857875824,0.5533521175384521,-0.2685681879520416,,,,,,
1764808553.915462,,,,,,,-0.0044280290603637695,-0.038130760192871094,-0.00936567410826683,0.3790156841278076,0.25321123003959656,0.32667627930641174
1764808553.923959,-0.25023937393277884,-0.13367255738675593,0.309327778445743,0.020138120278716087,0.5678793787956238,-0.2817519009113312,,,,,,
1764808553.925492,,,,,,,0.0036656856536865234,-0.03668460249900818,-0.012454632669687271,0.38036349415779114,0.2490241974592209,0.33151817321777344
1764808553.934011,-0.08117489290833473,-0.11154548125267028,0.28175821899678555,-2.4091918021440506e-05,0.5454955697059631,-0.29005900025367737,,,,,,
1764808553.935522,,,,,,,0.010637462139129639,-0.032015085220336914,-0.016459107398986816,0.3835371136665344,0.24018649756908417,0.33240747451782227
1764808553.944063,0.05534866999536752,-0.03463876718282699,0.22967501707077026,-0.01896076649427414,0.49137958884239197,-0.2908286452293396,,,,,,
1764808553.945552,,,,,,,0.01697254180908203,-0.03239142894744873,-0.012155532836914062,0.3705344796180725,0.21566437184810638,0.34412670135498047
1764808553.954115,0.09967764106541871,0.00038812253475189204,0.15987141300439833,-0.03369779512286186,0.4252076745033264,-0.2915598154067993,,,,,,
1764808553.955582,,,,,,,0.02625066041946411,-0.043257176876068115,-0.012967944145202637,0.32948148250579834,0.16625714302062988,0.3483108580112457
1764808553.964167,0.10848083298504352,-0.0383984119772911,0.11959084054231643,-0.048221610486507416,0.3642321825027466,-0.29518675804138184,,,,,,
1764808553.965612,,,,,,,0.028535842895507812,-0.05452921986579895,-0.005977746099233627,0.254563570022583,0.12205904722213745,0.3568212389945984
1764808553.974219,0.12098375620543957,-0.10395955616831778,0.14309563477039336,-0.06746768951416016,0.3078787922859192,-0.3014449179172516,,,,,,
1764808553.975642,,,,,,,0.02062857151031494,-0.05428069829940796,0.001409769058227539,0.17149806022644043,0.09950421005487442,0.3757050037384033
1764808553.984272,0.11414894174933433,-0.14342647415995596,0.10954875447750091,-0.08516199886798859,0.253541499376297,-0.3113923668861389,,,,,,
1764808553.985672,,,,,,,0.006998717784881592,-0.0494103729724884,0.002259131520986557,0.10851215571165085,0.08754235506057739,0.37894847989082336
1764808553.994324,0.09736001177281141,-0.17183832965195178,0.0684147800564766,-0.09986462444067001,0.20460480451583862,-0.32598012685775757,,,,,,
1764808553.995703,,,,,,,-0.0028525590896606445,-0.04170632362365723,0.0011745654046535492,0.056503891944885254,0.08102426677942276,0.3779122829437256
1764808554.004376,0.0870952228680253,-0.20640403159856796,0.029629414588212964,-0.1128600537776947,0.17002178728580475,-0.3432035744190216,,,,,,
1764808554.005733,,,,,,,-0.004902184009552002,-0.03242555260658264,-0.0003314018249511719,0.019933097064495087,0.0706067755818367,0.3809613287448883
1764808554.014429,0.11463117230832576,-0.21988778254985808,-0.04393040020652115,-0.1298566460609436,0.15474209189414978,-0.3568533957004547,,,,,,
1764808554.015763,,,,,,,-0.006354868412017822,-0.02442687749862671,0.001128915697336197,-0.02459869347512722,0.04168325662612915,0.39077848196029663
1764808554.024481,0.2006196029782295,-0.22964871358573435,-0.12152093182206153,-0.14274102449417114,0.14708897471427917,-0.36501944065093994,,,,,,
1764808554.025793,,,,,,,-0.006566226482391357,-0.006749957799911499,0.0030502043664455414,-0.04511222615838051,0.012109649367630482,0.41021931171417236
1764808554.034533,0.2781695833876729,-0.2675187177747488,-0.16462014190144836,-0.15783798694610596,0.14065013825893402,-0.36293384432792664,,,,,,
1764808554.035823,,,,,,,-0.01190859079360962,0.00472596287727356,-0.0031889677047729492,-0.02852071076631546,0.010222800076007843,0.41718411445617676
1764808554.044585,0.34816987906992436,-0.28137071751654147,-0.17474990624971687,-0.17159295082092285,0.12554575502872467,-0.35724693536758423,,,,,,
1764808554.045853,,,,,,,-0.022701561450958252,0.02182149887084961,-0.004502538591623306,0.003575705224648118,0.000874838326126337,0.42268621921539307
1764808554.054637,0.3866536312431097,-0.2907493712365627,-0.23157003703713416,-0.17601339519023895,0.11068619787693024,-0.3518337905406952,,,,,,
1764808554.055883,,,,,,,-0.03029954433441162,0.03530150651931763,-1.228228211402893e-05,0.030624227598309517,-0.005861095152795315,0.43262407183647156
1764808554.064689,0.3903118614897132,-0.265500363689661,-0.24531572686024009,-0.1809178739786148,0.09905244410037994,-0.34514206647872925,,,,,,
1764808554.065913,,,,,,,-0.03501492738723755,0.035480618476867676,0.0037262439727783203,0.03077043406665325,0.0008173140231519938,0.4169172942638397
1764808554.074742,0.4248839931771159,-0.22790274670124053,-0.25268523271493615,-0.18232406675815582,0.08460782468318939,-0.33955132961273193,,,,,,
1764808554.075943,,,,,,,-0.03993523120880127,0.042531996965408325,0.010185003280639648,0.007279620505869389,0.001193086034618318,0.4095117747783661
1764808554.084794,0.4704802077040076,-0.17403730100095272,-0.32453247143812475,-0.17164799571037292,0.07028534263372421,-0.3253132700920105,,,,,,
1764808554.085973,,,,,,,-0.03854024410247803,0.057114243507385254,0.015239711850881577,-0.005867873318493366,-0.0010133429896086454,0.3910946846008301
1764808554.094846,0.5143722486615181,-0.09602525603771209,-0.3663620269078761,-0.1549224555492401,0.06536858528852463,-0.30648574233055115,,,,,,
1764808554.096004,,,,,,,-0.0387653112411499,0.07021909952163696,0.01718282699584961,-0.009742719121277332,0.00153210642747581,0.3601638674736023
1764808554.104898,0.5332213260382413,-0.013012041786313057,-0.38051089070439337,-0.14449164271354675,0.06892549991607666,-0.2846219837665558,,,,,,
1764808554.106034,,,,,,,-0.034665584564208984,0.08636605739593506,0.018386363983154297,-0.002343924716114998,0.007805981673300266,0.337765634059906
1764808554.11495,0.5989493512287736,0.03487900567948818,-0.39821379372067744,-0.13538318872451782,0.07504164427518845,-0.2629610300064087,,,,,,
1764808554.116064,,,,,,,-0.025952398777008057,0.10076084733009338,0.015335440635681152,0.013116286136209965,0.0024386465083807707,0.31318697333335876
1764808554.125002,0.6679173812538385,0.02209551195204258,-0.4526302974324673,-0.12123195081949234,0.08005797117948532,-0.23628096282482147,,,,,,
1764808554.126094,,,,,,,-0.020921945571899414,0.11163529753684998,0.015129920095205307,0.0293586403131485,-0.00438836682587862,0.2845747768878937
1764808554.135054,0.6846782541796564,0.02404430793225765,-0.4786649023991078,-0.10910774767398834,0.09225214272737503,-0.2078627496957779,,,,,,
1764808554.136124,,,,,,,-0.02177518606185913,0.11217057704925537,0.016701698303222656,0.04848526790738106,0.0019520869245752692,0.25135642290115356
1764808554.145106,0.7063344979315995,0.04476034822463989,-0.4827729953050613,-0.09007786959409714,0.10215004533529282,-0.18316113948822021,,,,,,
1764808554.146154,,,,,,,-0.02897024154663086,0.1090867817401886,0.024518251419067383,0.04224947467446327,0.018316145986318588,0.22005416452884674
1764808554.155158,0.7093757653236389,0.07928454911708831,-0.5132862069904804,-0.06371569633483887,0.10597005486488342,-0.16195397078990936,,,,,,
1764808554.156184,,,,,,,-0.03579151630401611,0.11331135034561157,0.032965779304504395,0.05036069452762604,0.027026813477277756,0.19453167915344238
1764808554.16521,0.6705313631445169,0.08393442074954509,-0.537006105273962,-0.03822365030646324,0.11134697496891022,-0.14367403090000153,,,,,,
1764808554.166214,,,,,,,-0.03588789701461792,0.11763802170753479,0.030917763710021973,0.06455641239881516,0.037187039852142334,0.16411146521568298
1764808554.175263,0.7186985972031951,0.0365600906342268,-0.5406301409900188,-0.017506111413240433,0.12230763584375381,-0.12304208427667618,,,,,,
1764808554.176244,,,,,,,-0.032617390155792236,0.12500795722007751,0.025846239179372787,0.08905172348022461,0.04860667511820793,0.13959114253520966
1764808554.185315,0.769833448895812,0.011230419066548347,-0.5336404282331466,-0.0025940071791410446,0.1398024708032608,-0.0995442122220993,,,,,,
1764808554.186275,,,,,,,-0.033847928047180176,0.12749570608139038,0.025864243507385254,0.11597335338592529,0.05905665457248688,0.11957855522632599
1764808554.195367,0.8000508925050497,0.014622399592399596,-0.5277286469060928,0.013186188414692879,0.1511443704366684,-0.07274353504180908,,,,,,
1764808554.196305,,,,,,,-0.03540527820587158,0.13091138005256653,0.02400803565979004,0.1520082801580429,0.07134820520877838,0.09836893528699875
1764808554.205419,0.8056286926373839,0.011699790143966673,-0.542539116416499,0.02961442992091179,0.15125329792499542,-0.0489836148917675,,,,,,
1764808554.206335,,,,,,,-0.03469204902648926,0.1253949999809265,0.02000414952635765,0.18490205705165863,0.08032146096229553,0.06820224225521088
1764808554.215471,0.781221104350686,-0.0053583121627569195,-0.5350748449504376,0.04431336745619774,0.14491969347000122,-0.0264157485216856,,,,,,
1764808554.216365,,,,,,,-0.03190702199935913,0.12281614542007446,0.020716186612844467,0.193655863404274,0.07859146595001221,0.04986558482050896
1764808554.225523,0.7606207993924617,-0.05092530059516429,-0.5281050059378147,0.05634792521595955,0.14618149399757385,-0.002873137127608061,,,,,,
1764808554.226395,,,,,,,-0.03009706735610962,0.11683553457260132,0.022851701825857162,0.1836165487766266,0.07644788920879364,0.028667088598012924
1764808554.235575,0.7448246798455714,-0.07716215013563632,-0.5033937585294246,0.0655006691813469,0.1415572464466095,0.01610606163740158,,,,,,
1764808554.236425,,,,,,,-0.034998297691345215,0.1010948121547699,0.02412867546081543,0.1457972675561905,0.0799720510840416,-0.004286867566406727
1764808554.245627,0.7400669639244675,-0.09144728059768677,-0.47962008423209185,0.07535836100578308,0.12357185035943985,0.03295242041349411,,,,,,
1764808554.246455,,,,,,,-0.03836160898208618,0.09235313534736633,0.025882959365844727,0.1081545501947403,0.08551009744405746,-0.03189798817038536
1764808554.255679,0.7523623818740248,-0.05797872623801231,-0.49623102729320523,0.08933741599321365,0.10136217623949051,0.04961033910512924,,,,,,
1764808554.256485,,,,,,,-0.03545445203781128,0.089154452085495,0.02504253387451172,0.08787058293819427,0.08446613699197769,-0.06195442005991936
1764808554.265732,0.7356532391354441,-0.030360651472210884,-0.48606151545643805,0.10497549176216125,0.08082520961761475,0.06999657303094864,,,,,,
1764808554.266515,,,,,,,-0.03270387649536133,0.09219804406166077,0.02695619687438011,0.08115702122449875,0.07756508886814117,-0.0899658203125
1764808554.275784,0.7246054831594229,-0.006313420930504798,-0.4579342490594834,0.11670950055122375,0.06745142489671707,0.09227340668439865,,,,,,
1764808554.276545,,,,,,,-0.03018099069595337,0.09718692302703857,0.022616028785705566,0.089900903403759,0.07751528173685074,-0.10679306834936142
1764808554.285836,0.6988578784406184,0.013012626308202742,-0.4331775550741702,0.12755203247070312,0.056861091405153275,0.1118985041975975,,,,,,
1764808554.286576,,,,,,,-0.023228347301483154,0.09013429284095764,0.014833804219961166,0.09286021441221237,0.0783722922205925,-0.1317034810781479
1764808554.295888,0.6401303796619177,0.000647065731883049,-0.40396073987483977,0.13338331878185272,0.0532132126390934,0.1315307468175888,,,,,,
1764808554.296606,,,,,,,-0.015165984630584717,0.08160576224327087,0.013349652290344238,0.09174223244190216,0.07336581498384476,-0.15340490639209747
1764808554.30594,0.5831096848011017,-0.028467969593405723,-0.3905774536233395,0.1405666619539261,0.06610850244760513,0.14666922390460968,,,,,,
1764808554.306636,,,,,,,-0.011804401874542236,0.07451781630516052,0.018132567405700684,0.09212732315063477,0.06849755346775055,-0.17001716792583466
1764808554.315992,0.516004233777523,-0.030381694260239598,-0.3329237946212292,0.15312710404396057,0.07601198554039001,0.16252385079860687,,,,,,
1764808554.316666,,,,,,,-0.015312612056732178,0.06359022855758667,0.019268155097961426,0.08585405349731445,0.08335106819868088,-0.19355100393295288
1764808554.326044,0.445059350721538,-0.012359130835533142,-0.3142658559024334,0.16628284752368927,0.07666046172380447,0.17544551193714142,,,,,,
1764808554.326696,,,,,,,-0.02212655544281006,0.06116706132888794,0.017148010432720184,0.09333380311727524,0.10284274816513062,-0.20862875878810883
1764808554.336096,0.38734512063860893,-0.03210135765969753,-0.35680626305527985,0.18041518330574036,0.08389094471931458,0.18284457921981812,,,,,,
1764808554.336726,,,,,,,-0.02058357000350952,0.05963924527168274,0.016333699226379395,0.11634737998247147,0.10235964506864548,-0.2222851812839508
1764808554.346148,0.37709143764972686,-0.07573065602779389,-0.3397100937604904,0.19179193675518036,0.09948641806840897,0.19302797317504883,,,,,,
1764808554.346756,,,,,,,-0.016263067722320557,0.05648168921470642,0.014113187789916992,0.13606223464012146,0.1031748428940773,-0.2343815118074417
1764808554.356201,0.37718846828341485,-0.11827099011540412,-0.29305479863472284,0.20055387914180756,0.11592693626880646,0.20684345066547394,,,,,,
1764808554.356786,,,,,,,-0.01599186658859253,0.046147435903549194,0.013658765703439713,0.14849530160427094,0.09778992831707001,-0.24334271252155304
1764808554.366253,0.3226733265027404,-0.13731938945651054,-0.24558818712607025,0.20773136615753174,0.13088804483413696,0.22311776876449585,,,,,,
1764808554.366816,,,,,,,-0.015508413314819336,0.032529741525650024,0.010589834302663803,0.15653672814369202,0.09804373234510422,-0.25441908836364746
1764808554.376305,0.2530433254376054,-0.15113924049437044,-0.21079028385877607,0.21153971552848816,0.14725205302238464,0.2344111204147339,,,,,,
1764808554.376846,,,,,,,-0.017341434955596924,0.030278772115707397,0.007953520864248276,0.18093401193618774,0.10668009519577026,-0.25302809476852417
1764808554.386357,0.20988252136409283,-0.13844693218171597,-0.1840460693180561,0.21694673597812653,0.16861486434936523,0.24276599287986755,,,,,,
1764808554.386877,,,,,,,-0.015332937240600586,0.029397308826446533,0.003762718290090561,0.22337201237678528,0.11952425539493561,-0.2576039433479309
1764808554.396409,0.17235738508999346,-0.12474924621880054,-0.11586166395135224,0.22009021043777466,0.19045889377593994,0.24743440747261047,,,,,,
1764808554.396907,,,,,,,-0.013183116912841797,0.022493302822113037,0.002766728401184082,0.2600812017917633,0.13563930988311768,-0.2578274607658386
1764808554.406461,0.16717179914563893,-0.0707411771774292,-0.052819736039638514,0.22331424057483673,0.2141258716583252,0.25266194343566895,,,,,,
1764808554.406937,,,,,,,-0.006484627723693848,0.015699446201324463,0.0010017156600952148,0.3035413324832916,0.14951997995376587,-0.2621942460536957
1764808554.416513,0.1286205346941948,0.04298340167999267,0.026873905334994196,0.2222924828529358,0.22812527418136597,0.2605148255825043,,,,,,
1764808554.416967,,,,,,,0.0026253461837768555,0.0038317739963531494,0.0015883445739746094,0.31995338201522827,0.15987993776798248,-0.2757081389427185
1764808554.426565,0.06841799492686987,0.08039689427316188,0.04455466958470642,0.2320564240217209,0.2325836718082428,0.27082180976867676,,,,,,
1764808554.426997,,,,,,,0.016111016273498535,-0.0034167468547821045,-0.000362984836101532,0.32945528626441956,0.1480102241039276,-0.2791196405887604
1764808554.436617,-0.0374573317348957,0.02983925794661045,0.041508068430423734,0.2508195638656616,0.23835577070713043,0.2809801995754242,,,,,,
1764808554.437027,,,,,,,0.02341759204864502,-0.01340588927268982,-0.0018265247344970703,0.330534428358078,0.12099165469408035,-0.28924283385276794
1764808554.44667,-0.11826426811367273,-0.056011225557327265,0.11861235089898109,0.2538374364376068,0.257681280374527,0.28841814398765564,,,,,,
1764808554.447057,,,,,,,0.019395112991333008,-0.025509178638458252,0.0003625154495239258,0.32178938388824463,0.12392166256904602,-0.29300403594970703
1764808554.456722,-0.16049071394652129,-0.09954407781362533,0.1501905614674091,0.25004640221595764,0.28619861602783203,0.29056915640830994,,,,,,
1764808554.457087,,,,,,,0.008984506130218506,-0.02971586585044861,-0.0009256601333618164,0.32929953932762146,0.14147590100765228,-0.2837640345096588
1764808554.466774,-0.15118921711593866,-0.010917115333676338,0.16044888409879057,0.2420145720243454,0.31747743487358093,0.28389793634414673,,,,,,
1764808554.467117,,,,,,,0.00785839557647705,-0.038551121950149536,-0.0045708417892456055,0.3561156988143921,0.1529567837715149,-0.2909284830093384
1764808554.476826,-0.07319996850639582,0.2212719303846359,0.11848017588667571,0.22921335697174072,0.3326379656791687,0.2841290235519409,,,,,,
1764808554.477147,,,,,,,0.012555241584777832,-0.03835168480873108,-0.004464868456125259,0.36476609110832214,0.1593124270439148,-0.28782856464385986
1764808554.486878,0.04063917664140462,0.29285248099565503,-0.028532888055779037,0.2562313973903656,0.33135777711868286,0.2961047291755676,,,,,,
1764808554.487178,,,,,,,0.025584816932678223,-0.016677647829055786,0.0034831762313842773,0.39341557025909424,0.1504446268081665,-0.2726517617702484
1764808554.49693,0.09952712667882442,0.2875350853651762,0.018338753234408794,0.2924990952014923,0.3214472532272339,0.30636245012283325,,,,,,
1764808554.497208,,,,,,,0.035761892795562744,-0.01275336742401123,0.010777592658996582,0.39363062381744385,0.1351516842842102,-0.30065181851387024
1764808554.506982,0.23150252475887537,0.39308980177044867,0.15228778947498647,0.3036087155342102,0.2913881540298462,0.30218419432640076,,,,,,
1764808554.507238,,,,,,,0.02865314483642578,-0.013081789016723633,0.024345871061086655,0.3474402129650116,0.14877855777740479,-0.31749337911605835
1764808554.517034,0.4221601211711764,0.7248918988853693,0.0029588498055934903,0.3158823251724243,0.2548990547657013,0.29252922534942627,,,,,,
1764808554.517268,,,,,,,0.021765291690826416,-0.0043569207191467285,0.030516859143972397,0.2715742588043213,0.18003606796264648,-0.3414609730243683
1764808554.527086,0.7137231468781828,1.078556868240237,-0.3393441099923104,0.38211166858673096,0.22565191984176636,0.2920359969139099,,,,,,
1764808554.527298,,,,,,,0.024423420429229736,0.026479780673980713,0.033844586461782455,0.15552860498428345,0.19720281660556793,-0.3801753520965576
1764808554.537139,0.9742197109311819,0.9530991814911365,-0.5353577535450458,0.508858859539032,0.2038828581571579,0.3217920660972595,,,,,,
1764808554.537328,,,,,,,0.035948753356933594,0.06727349758148193,0.043096788227558136,0.01557595282793045,0.1720156967639923,-0.4519630968570709
1764808554.547191,1.0866618487626314,0.5935878241956234,-0.3427858479440212,0.5929284691810608,0.18376268446445465,0.3836996257305145,,,,,,
1764808554.547358,,,,,,,0.03744387626647949,0.08148667216300964,0.05285811424255371,-0.129782572388649,0.1668531596660614,-0.5504097938537598
1764808554.557243,1.0438561417371035,0.3074889091134071,-0.2390401902547106,0.6176314949989319,0.1695333868265152,0.4622505307197571,,,,,,
1764808554.557388,,,,,,,0.023484110832214355,0.11241763830184937,0.05667353421449661,-0.2400202602148056,0.16846516728401184,-0.660956621170044
1764808554.567295,0.9534019638299941,0.18973814347982407,-0.4035117905309424,0.6309608817100525,0.19191060960292816,0.5309193730354309,,,,,,
1764808554.567418,,,,,,,0.01629716157913208,0.17475572228431702,0.03897380828857422,-0.2855219542980194,0.15267129242420197,-0.7729430794715881
1764808554.577347,1.0303548551291226,0.2974725420117378,-0.6126163497924805,0.656078040599823,0.26104435324668884,0.5984197854995728,,,,,,
1764808554.577448,,,,,,,0.00919950008392334,0.24354848265647888,0.007988937199115753,-0.26545825600624084,0.1480797380208969,-0.8747531771659851
1764808554.587399,1.2826067379280923,0.5996726970672607,-0.8450725220143794,0.7014737725257874,0.3742537200450897,0.6713957190513611,,,,,,
1764808554.587479,,,,,,,-0.002533555030822754,0.29301613569259644,-0.006106972694396973,-0.22476276755332947,0.1817021518945694,-0.9586078524589539
1764808554.597451,1.6258435445100068,0.7750865471184253,-1.0753834989011286,0.7882181406021118,0.5208805799484253,0.7542944550514221,,,,,,
1764808554.597509,,,,,,,-0.014538109302520752,0.3191347122192383,0.007330175489187241,-0.2086116522550583,0.22225382924079895,-1.0399465560913086
1764808554.607503,1.9674939586833118,0.7789788783818483,-1.0731716680705548,0.886522114276886,0.6574008464813232,0.8565757870674133,,,,,,
1764808554.607539,,,,,,,-0.01717233657836914,0.3235337734222412,0.036644816398620605,-0.19034609198570251,0.2541595697402954,-1.1351999044418335
1764808554.617555,2.2257661246851086,0.6191179867714643,-0.9288380159378051,0.9607475399971008,0.7245222926139832,0.9665460586547852,,,,,,
1764808554.617569,,,,,,,-0.009025216102600098,0.3331788182258606,0.04329680651426315,-0.16211113333702087,0.28010621666908264,-1.2642029523849487
1764808554.627599,,,,,,,-0.005412757396697998,0.3729284405708313,0.040289878845214844,-0.08386852592229843,0.29521432518959045,-1.3733083009719849
1764808554.627608,2.4591882193297145,0.38387422965764995,-0.8705296193540096,1.0176960229873657,0.723950207233429,1.067948579788208,,,,,,
1764808554.637629,,,,,,,-0.0005826950073242188,0.41466861963272095,0.024794578552246094,-0.008103561587631702,0.28731006383895874,-1.4756051301956177
1764808554.63766,2.7150845961108803,0.22784487903416156,-0.8203057450264691,1.0579442977905273,0.6971089839935303,1.1667226552963257,,,,,,
1764808554.647659,,,,,,,0.002026081085205078,0.44714170694351196,0.009454481303691864,0.1001635193824768,0.2930680811405182,-1.5781351327896118
1764808554.647712,3.0192931683793662,0.21099194391071796,-0.8030921598970889,1.0741454362869263,0.7068561315536499,1.2647687196731567,,,,,,
1764808554.657689,,,,,,,0.00822150707244873,0.4604607820510864,-0.007760755717754364,0.22420160472393036,0.3069647252559662,-1.6591089963912964
1764808554.657764,3.3162913708776234,0.3386912721067667,-0.8682242650210857,1.0849629640579224,0.7430126070976257,1.387073040008545,,,,,,
1764808554.667719,,,,,,,0.015538513660430908,0.4593510031700134,-0.018927089869976044,0.3470367193222046,0.3548898994922638,-1.7441424131393433
1764808554.667816,3.4631364213094114,0.6050795245468616,-1.0182383008778095,1.1150017976760864,0.7757351398468018,1.5237762928009033,,,,,,
1764808554.677749,,,,,,,0.014515578746795654,0.44893980026245117,0.0062558576464653015,0.4076939821243286,0.43318018317222595,-1.8323512077331543
1764808554.677868,3.490804764957726,0.7959820356309414,-1.1503694740414618,1.1717569828033447,0.7773561477661133,1.6545902490615845,,,,,,
1764808554.68778,,,,,,,0.012386739253997803,0.43963438272476196,0.039085157215595245,0.42142045497894287,0.47584936022758484,-1.9795496463775635
1764808554.68792,3.4745801908656953,0.7944844905495643,-1.1323416499197483,1.2621358633041382,0.7340885400772095,1.7746535539627075,,,,,,
1764808554.69781,,,,,,,0.014458060264587402,0.4401198625564575,0.06526302546262741,0.3844481408596039,0.48647162318229675,-2.162356376647949
1764808554.697972,3.395263785305619,0.6690010848373175,-0.9459335276454687,1.3462646007537842,0.633472204208374,1.9038879871368408,,,,,,
1764808554.70784,,,,,,,0.02197420597076416,0.45530349016189575,0.08239685744047165,0.2904590368270874,0.47506585717201233,-2.328533887863159
1764808554.708024,3.255799200513959,0.5130442149281501,-0.7563117040216922,1.3855602741241455,0.5196385383605957,2.0346670150756836,,,,,,
1764808554.71787,,,,,,,0.03701561689376831,0.47965121269226074,0.0530778169631958,0.29821425676345825,0.49013376235961914,-2.5162510871887207
1764808554.718077,3.138472797772288,0.4766267476350069,-0.8261457032263279,1.375571370124817,0.4314205050468445,2.1443424224853516,,,,,,
1764808554.7279,,,,,,,0.05895578861236572,0.5249764323234558,0.007155299186706543,0.21721899509429932,0.5852019190788269,-2.702439069747925
1764808554.728129,3.297975961986184,0.8632078981637954,-1.119721822321415,1.371665120124817,0.43596306443214417,2.2341325283050537,,,,,,
1764808554.73793,,,,,,,0.08719784021377563,0.5414536595344543,0.06185460835695267,-0.01045224815607071,0.6368198394775391,-2.873730421066284
1764808554.738181,3.695905020481348,1.5511895778030156,-1.4631646728694438,1.4166215658187866,0.4890895187854767,2.3378100395202637,,,,,,
1764808554.74796,,,,,,,0.13736706972122192,0.5145109295845032,0.1110609918832779,-0.2912333309650421,0.6407299041748047,-3.048323392868042
1764808554.748233,4.029354300281406,1.904958007532358,-1.5932669705539941,1.5255589485168457,0.49565020203590393,2.491007089614868,,,,,,
1764808554.75799,,,,,,,0.1730501651763916,0.48791199922561646,0.14614342153072357,-0.430848091840744,0.6194760203361511,-3.204457998275757
1764808554.758285,4.084273638948798,1.8166215524315834,-1.533424788531661,1.6321215629577637,0.4038422703742981,2.6925244331359863,,,,,,
1764808554.76802,,,,,,,0.18627578020095825,0.5030866265296936,0.1512066125869751,-0.4705049693584442,0.6025534868240356,-3.348822832107544
1764808554.768337,3.934131008276343,1.5289058498024939,-1.5001694385312496,1.6909189224243164,0.30216464400291443,2.894139289855957,,,,,,
1764808554.778051,,,,,,,0.1775684356689453,0.5576729774475098,0.1366666555404663,-0.42777034640312195,0.6572266221046448,-3.486467123031616
1764808554.778389,3.725729665380716,1.227501813560724,-1.4065472981125116,1.7088969945907593,0.2575779855251312,3.0436997413635254,,,,,,
1764808554.788081,,,,,,,0.16531705856323242,0.5881775617599487,0.11180998384952545,-0.25715386867523193,0.7554847002029419,-3.605703353881836
1764808554.788441,3.555788693782687,1.2070441319435834,-1.4237573761105538,1.702778935432434,0.29292532801628113,3.1388416290283203,,,,,,
1764808554.798111,,,,,,,0.1757814884185791,0.5891863107681274,0.10568475723266602,-0.06092561408877373,0.8727388978004456,-3.6941559314727783
1764808554.798494,3.4408290201723575,1.562423504000902,-1.5116747290164232,1.6964426040649414,0.3752776086330414,3.2314205169677734,,,,,,
1764808554.808141,,,,,,,0.2120518684387207,0.5865278840065002,0.13603293895721436,0.022970350459218025,0.973866879940033,-3.770103931427002
1764808554.808546,3.309059666058421,2.0879373244017363,-1.693957734184712,1.7153595685958862,0.4542970657348633,3.3513526916503906,,,,,,
1764808554.818171,,,,,,,0.2647901177406311,0.547793447971344,0.18699824810028076,0.044540781527757645,1.0331684350967407,-3.8665850162506104
1764808554.818598,3.111395405754447,2.53260299963057,-1.8161415138296781,1.7695837020874023,0.4938789904117584,3.482809543609619,,,,,,
1764808554.828201,,,,,,,0.3093084394931793,0.4910663366317749,0.2481762021780014,-0.011847661808133125,1.0705832242965698,-3.972968101501465
1764808554.82865,2.893082909697294,2.872888262930512,-1.8392676840037105,1.848060131072998,0.4763985276222229,3.6041641235351562,,,,,,
1764808554.838231,,,,,,,0.3432469964027405,0.4704121947288513,0.2950531244277954,-0.07478994876146317,1.1203124523162842,-4.065244197845459
1764808554.838702,2.7866519949793815,3.0351065313220023,-1.824235972958058,1.9315835237503052,0.42685121297836304,3.701809883117676,,,,,,
1764808554.848261,,,,,,,0.3708469271659851,0.46051740646362305,0.3063915967941284,-0.05807701498270035,1.190178632736206,-4.122751712799072
1764808554.848754,2.6792233013957736,2.922552165287733,-1.6594434701643883,2.008543014526367,0.3807297945022583,3.794325828552246,,,,,,
1764808554.858291,,,,,,,0.3807748258113861,0.4358140230178833,0.27757728099823,0.049362361431121826,1.2810555696487427,-4.14687442779541
1764808554.858806,2.4522470218896864,2.643992998060584,-1.4516744338229297,2.0457167625427246,0.3803795576095581,3.869572877883911,,,,,,
1764808554.868321,,,,,,,0.3831940293312073,0.40240663290023804,0.2514615058898926,0.21123860776424408,1.3847534656524658,-4.1546311378479
1764808554.868858,2.1039982323646544,2.384156651481986,-1.306889823052287,2.035541534423828,0.4419124126434326,3.9037325382232666,,,,,,
1764808554.878352,,,,,,,0.3933650255203247,0.38294994831085205,0.24329209327697754,0.36757171154022217,1.4980709552764893,-4.1495232582092285
1764808554.87891,1.727525218874216,2.4418773113057015,-1.2053512104205786,2.0168607234954834,0.5443333387374878,3.9035003185272217,,,,,,
1764808554.888382,,,,,,,0.4222317039966583,0.36718302965164185,0.25066542625427246,0.5271635055541992,1.6019706726074219,-4.129137992858887
1764808554.888963,1.356124101820588,2.814973249578476,-1.123548687133193,2.0229220390319824,0.6386616826057434,3.911285400390625,,,,,,
1764808554.898412,,,,,,,0.4644542932510376,0.34041881561279297,0.2687135934829712,0.6399754881858826,1.680854082107544,-4.121389865875244
1764808554.899015,0.961800374341011,3.3154446909204123,-1.0528431657910347,2.046605110168457,0.7087336182594299,3.9444730281829834,,,,,,
1764808554.908442,,,,,,,0.5111448168754578,0.31596052646636963,0.2811025381088257,0.637924313545227,1.7522475719451904,-4.1583123207092285
1764808554.909067,0.5760749638587236,3.737902333733439,-0.9050549892902374,2.074660062789917,0.7478379011154175,3.996663808822632,,,,,,
1764808554.918472,,,,,,,0.5648298263549805,0.2735462784767151,0.27965715527534485,0.5630568265914917,1.814602255821228,-4.205989360809326
1764808554.919119,0.265187059956789,4.106312452277541,-0.6884538271956145,2.0977542400360107,0.758512556552887,4.054072380065918,,,,,,
1764808554.928502,,,,,,,0.6240066885948181,0.23996973037719727,0.28408384323120117,0.38230085372924805,1.8452507257461548,-4.252936840057373
1764808554.929171,0.08000117295384407,4.427120861691236,-0.6516150657504797,2.110337734222412,0.768310010433197,4.1089935302734375,,,,,,
1764808554.938532,,,,,,,0.689598798751831,0.20479953289031982,0.28050827980041504,0.31781619787216187,1.832321286201477,-4.187702655792236
1764808554.939223,-0.010824176353216171,4.534744785585999,-0.8540434717163443,2.103559732437134,0.8272468447685242,4.15895414352417,,,,,,
1764808554.948562,,,,,,,0.7221667766571045,0.13654065132141113,0.2548292875289917,0.41051310300827026,1.753546118736267,-4.088135242462158
1764808554.949275,-0.11233575484752654,4.140322273907065,-1.076707148720324,2.073650598526001,0.9369262456893921,4.171342849731445,,,,,,
1764808554.958592,,,,,,,0.6851562857627869,0.0903925895690918,0.22954916954040527,0.5686450600624084,1.7408877611160278,-4.016505241394043
1764808554.959327,-0.24253859029710292,3.464899339328706,-0.9650769117936492,2.01066255569458,1.0290204286575317,4.123960494995117,,,,,,
1764808554.968622,,,,,,,0.6207190155982971,0.06144416332244873,0.22451470792293549,0.6941497325897217,1.8000071048736572,-3.9631290435791016
1764808554.96938,-0.3128746938049793,3.091278792659938,-0.6933703869402408,1.9409602880477905,1.0454071760177612,4.030509948730469,,,,,,
1764808554.978653,,,,,,,0.5855873823165894,0.043799400329589844,0.2693549394607544,0.7183045148849487,1.8541009426116943,-3.880211353302002
1764808554.979432,-0.27529227438569065,3.1792335549667476,-0.5597632960051298,1.8931537866592407,0.9889886379241943,3.918043375015259,,,,,,
1764808554.988683,,,,,,,0.5905224680900574,0.046693623065948486,0.28928375244140625,0.795466959476471,1.8603681325912476,-3.781409740447998
1764808554.989484,-0.16819675827920436,3.4609897646695376,-0.7443311972402036,1.8850010633468628,0.8985242247581482,3.829345941543579,,,,,,
1764808554.998713,,,,,,,0.5899505615234375,0.05103522539138794,0.2808009386062622,0.8810592889785767,1.8556519746780396,-3.7197654247283936
1764808554.999536,-0.08599369136691093,3.59479004008919,-0.9022543987862766,1.8982387781143188,0.817120373249054,3.7759933471679688,,,,,,
1764808555.008742,,,,,,,0.5629149675369263,0.05193895101547241,0.28074800968170166,0.8937540650367737,1.8798243999481201,-3.6815812587738037
1764808555.009588,-0.12934066566228866,3.523305643329024,-0.8938022122614085,1.9167107343673706,0.7317847013473511,3.747354745864868,,,,,,
1764808555.018772,,,,,,,0.5357859134674072,0.00970238447189331,0.3004521131515503,0.8146845698356628,1.9142094850540161,-3.644784927368164
1764808555.01964,-0.22904665603935717,3.4041444263756273,-0.8365538461245596,1.9471518993377686,0.6389096975326538,3.7207608222961426,,,,,,
1764808555.028802,,,,,,,0.5208051204681396,-0.023059487342834473,0.32449138164520264,0.6686141490936279,1.9757277965545654,-3.5998177528381348
1764808555.029692,-0.32751638261973853,3.386463223734498,-0.8368570668548345,1.9879270792007446,0.5434987545013428,3.681338310241699,,,,,,
1764808555.038832,,,,,,,0.5146580338478088,-0.024168550968170166,0.32587528228759766,0.49677520990371704,2.007964849472046,-3.569251537322998
1764808555.039744,-0.38832302576005456,3.4496605614036318,-0.9682780459225178,2.0416414737701416,0.46077412366867065,3.6315717697143555,,,,,,
1764808555.048862,,,,,,,0.5129252672195435,-0.023153841495513916,0.3354746103286743,0.36758819222450256,2.0530107021331787,-3.503903865814209
1764808555.049797,-0.40314650088250636,3.4249627579987045,-1.0401198047529905,2.0975778102874756,0.3917793333530426,3.5696959495544434,,,,,,
1764808555.058892,,,,,,,0.5012385249137878,-0.021495819091796875,0.3124133348464966,0.3415069878101349,2.108508348464966,-3.4196877479553223
1764808555.059849,-0.4345797500222921,3.236301888361573,-1.0133721561461686,2.1370327472686768,0.34013381600379944,3.505108118057251,,,,,,
1764808555.068922,,,,,,,0.47758811712265015,-0.0029436349868774414,0.2960301637649536,0.33964329957962036,2.1581485271453857,-3.381751298904419
1764808555.069901,-0.5084171396493912,3.0450214838758107,-1.0028010777711869,2.1569182872772217,0.317899614572525,3.4492526054382324,,,,,,
1764808555.078953,,,,,,,0.4575989842414856,0.038429856300354004,0.3138445019721985,0.3668591380119324,2.207214593887329,-3.314314603805542
1764808555.079953,-0.5512924047797918,2.90533419624418,-1.1529839673887938,2.169327735900879,0.31945693492889404,3.395977258682251,,,,,,
1764808555.088983,,,,,,,0.4482060670852661,0.047080397605895996,0.30600863695144653,0.45695334672927856,2.230982780456543,-3.2525382041931152
1764808555.090005,-0.5795458548396826,2.7928637091010806,-1.3475444895237683,2.1867763996124268,0.3267683684825897,3.3536200523376465,,,,,,
1764808555.099013,,,,,,,0.4295172691345215,0.06678837537765503,0.3368440270423889,0.4571436643600464,2.271224021911621,-3.2581946849823
1764808555.100057,-0.5110036490112543,2.7426374966859814,-1.5473820022135971,2.2094364166259766,0.34417688846588135,3.323071241378784,,,,,,
1764808555.109043,,,,,,,0.40616339445114136,0.11920279264450073,0.3579469919204712,0.4918617010116577,2.333195447921753,-3.2408699989318848
1764808555.110109,-0.38185236844122405,2.8128716011241077,-1.6239730744630096,2.235766649246216,0.36935415863990784,3.3136730194091797,,,,,,
1764808555.119073,,,,,,,0.3978789448738098,0.10111033916473389,0.34331363439559937,0.5401716232299805,2.3790297508239746,-3.198641777038574
1764808555.120161,-0.2962672578752041,2.819195251187682,-1.556336293041706,2.2498018741607666,0.39970195293426514,3.3288121223449707,,,,,,
1764808555.129103,,,,,,,0.39526093006134033,0.06358355283737183,0.33918052911758423,0.5430569052696228,2.4082889556884766,-3.191739082336426
1764808555.130214,-0.41614919031858444,2.5812597707718608,-1.5372493152558802,2.2516963481903076,0.42490798234939575,3.3292489051818848,,,,,,
1764808555.139133,,,,,,,0.3881620168685913,0.05661821365356445,0.3539798855781555,0.49374476075172424,2.431588649749756,-3.1775755882263184
1764808555.140266,-0.5340688827782869,2.297972405979037,-1.5745809747844934,2.2590036392211914,0.42486318945884705,3.3017067909240723,,,,,,
1764808555.149163,,,,,,,0.37319815158843994,0.07478749752044678,0.37505096197128296,0.45482081174850464,2.4894766807556152,-3.134901285171509
1764808555.150318,-0.4544178384363651,2.168410791042447,-1.6257950291931629,2.295633316040039,0.4363850951194763,3.252392292022705,,,,,,
1764808555.159193,,,,,,,0.35248738527297974,0.07409614324569702,0.3660542964935303,0.4406556189060211,2.5408883094787598,-3.100452184677124
1764808555.16037,-0.27712358146607874,2.1652724930167198,-1.5002245297193526,2.3371694087982178,0.4545724391937256,3.2072231769561768,,,,,,
1764808555.169223,,,,,,,0.33937764167785645,0.057755470275878906,0.3575601577758789,0.38477346301078796,2.5796468257904053,-3.0658395290374756
1764808555.170422,-0.1814133827269077,2.0521341896146534,-1.3877344610929487,2.3651034832000732,0.4588300287723541,3.172597646713257,,,,,,
1764808555.179254,,,,,,,0.3276776075363159,0.042783379554748535,0.33495980501174927,0.37853583693504333,2.6151461601257324,-3.003291130065918
1764808555.180474,-0.17681611806452274,1.7248223896563053,-1.3473311390340328,2.3738372325897217,0.4422191381454468,3.1492578983306885,,,,,,
1764808555.189284,,,,,,,0.30412113666534424,0.034246087074279785,0.3127943277359009,0.38792696595191956,2.6605350971221924,-2.9587595462799072
1764808555.190526,-0.257810978230834,1.4533891287863254,-1.3111866434633732,2.3510098457336426,0.4342730939388275,3.118446111679077,,,,,,
1764808555.199314,,,,,,,0.2862391471862793,0.07296693325042725,0.2977730929851532,0.42098289728164673,2.727266788482666,-2.9177420139312744
1764808555.200578,-0.350635976922512,1.5194494546711443,-1.2417758381068706,2.31008243560791,0.46125930547714233,3.0730020999908447,,,,,,
1764808555.209345,,,,,,,0.30629825592041016,0.08426094055175781,0.2702430188655853,0.5481967329978943,2.724453926086426,-2.8358945846557617
1764808555.210631,-0.3877554550051689,1.5855296543002129,-1.2241655087448655,2.267080545425415,0.5112196803092957,3.027008533477783,,,,,,
1764808555.219374,,,,,,,0.31988847255706787,0.03666818141937256,0.25229865312576294,0.6802399754524231,2.6933083534240723,-2.756563186645508
1764808555.220683,-0.5250017792254686,1.4931085602343082,-1.1888321834266184,2.2231733798980713,0.565990149974823,2.9718387126922607,,,,,,
1764808555.229404,,,,,,,0.30042076110839844,0.04093354940414429,0.23228532075881958,0.7910048365592957,2.655184268951416,-2.7325875759124756
1764808555.230735,-0.670816609826684,1.3637848457068205,-1.1260675380863248,2.1691644191741943,0.6012698411941528,2.9083828926086426,,,,,,
1764808555.239434,,,,,,,0.2908116579055786,0.07450664043426514,0.2150477170944214,0.8726629614830017,2.615971326828003,-2.7058980464935303
1764808555.240787,-0.6637567544430494,1.403965464925766,-1.0630099011488259,2.1066079139709473,0.5985175371170044,2.845402240753174,,,,,,
1764808555.249464,,,,,,,0.3107771873474121,0.07839018106460571,0.23941189050674438,0.9156386256217957,2.573577642440796,-2.6569714546203613
1764808555.250839,-0.5080839621722698,1.6973697345852852,-1.061495404932648,2.045936107635498,0.5805574655532837,2.7919862270355225,,,,,,
1764808555.259494,,,,,,,0.3417809009552002,0.049402058124542236,0.2573899030685425,0.9354941844940186,2.5388424396514893,-2.5935404300689697
1764808555.260891,-0.371814958551526,2.1704566176563502,-1.0580481870882212,2.015204429626465,0.5828148722648621,2.7437620162963867,,,,,,
1764808555.269524,,,,,,,0.3641858696937561,-0.0012865960597991943,0.24723321199417114,0.9386332631111145,2.4857981204986572,-2.5333447456359863
1764808555.270943,-0.31884792299568654,2.6066747825354337,-0.8818377798318863,1.9949359893798828,0.572803795337677,2.692917585372925,,,,,,
1764808555.279555,,,,,,,0.38206028938293457,-0.04963517189025879,0.23502689599990845,0.8897112607955933,2.441322088241577,-2.4739060401916504
1764808555.280995,-0.4291740915864706,2.821871776920557,-0.6946937444984912,1.971925973892212,0.5251697301864624,2.6366655826568604,,,,,,
1764808555.289585,,,,,,,0.39166152477264404,-0.06978854537010193,0.20266667008399963,0.8571410775184631,2.404710054397583,-2.3861441612243652
1764808555.291048,-0.6579664806038141,2.7783360020548105,-0.601525923718512,1.9475258588790894,0.4539472460746765,2.568375587463379,,,,,,
1764808555.299615,,,,,,,0.3892166018486023,-0.07172462344169617,0.1999964714050293,0.8869436383247375,2.364513874053955,-2.3066866397857666
1764808555.3011,-0.8779004403829574,2.6315806757330895,-0.595069294925034,1.924527883529663,0.3891630172729492,2.4768083095550537,,,,,,
1764808555.309645,,,,,,,0.3789225220680237,-0.05705484747886658,0.21936452388763428,0.9536992311477661,2.367479085922241,-2.2080609798431396
1764808555.311152,-1.0616711998909711,2.727931510463357,-0.5401768442645669,1.9074056148529053,0.3586549162864685,2.3571722507476807,,,,,,
1764808555.319675,,,,,,,0.3895389437675476,-0.05644223093986511,0.2179093360900879,1.0354324579238892,2.317115306854248,-2.085759401321411
1764808555.321204,-1.2501789247930049,3.037435851052403,-0.39602088678628206,1.8841527700424194,0.3527103662490845,2.236344337463379,,,,,,
1764808555.329705,,,,,,,0.4327089190483093,-0.08076056838035583,0.20478492975234985,1.1548006534576416,2.2118959426879883,-1.9703278541564941
1764808555.331256,-1.4406749009028077,3.2768121779263018,-0.27215105375051496,1.8507386445999146,0.3793369233608246,2.1250813007354736,,,,,,
1764808555.339735,,,,,,,0.4646967649459839,-0.10176524519920349,0.16595935821533203,1.2153780460357666,2.1353225708007812,-1.8604490756988525
1764808555.341308,-1.6765417583510278,3.471680670031905,-0.07437193489521741,1.7981339693069458,0.4017440974712372,2.0130155086517334,,,,,,
1764808555.349765,,,,,,,0.4951190948486328,-0.11225837469100952,0.14143872261047363,1.1979050636291504,2.0027782917022705,-1.7366102933883667
1764808555.35136,-1.7878434939756989,3.4718495968580245,-0.092153675301373,1.7366197109222412,0.39800557494163513,1.8985140323638916,,,,,,
1764808555.359796,,,,,,,0.5063557028770447,-0.16402597725391388,0.11692929267883301,1.1242324113845825,1.8349679708480835,-1.6426907777786255
1764808555.361412,-1.8203686300054192,3.2002029854983087,-0.14265432074367998,1.6775288581848145,0.3771592378616333,1.7717719078063965,,,,,,
1764808555.369825,,,,,,,0.4780639410018921,-0.23169004917144775,0.08697390556335449,0.9709562063217163,1.7657090425491333,-1.5534378290176392
1764808555.371465,-1.8503908433035015,3.05286547537446,0.031417467048764226,1.5900722742080688,0.33167722821235657,1.619323492050171,,,,,,
1764808555.379856,,,,,,,0.46590912342071533,-0.23674513399600983,0.09245216846466064,0.7806994318962097,1.684814214706421,-1.4628547430038452
1764808555.381517,-1.848015930865705,3.0690865423351523,0.09026508507579564,1.4903903007507324,0.28377988934516907,1.4503486156463623,,,,,,
1764808555.389886,,,,,,,0.4766075611114502,-0.22788023948669434,0.08368247747421265,0.607115626335144,1.540263056755066,-1.3539596796035767
1764808555.391569,-1.707187364244461,3.1754104895472524,0.13765578180402516,1.408556342124939,0.23050600290298462,1.2890124320983887,,,,,,
1764808555.399916,,,,,,,0.4760597348213196,-0.26294058561325073,0.05890798568725586,0.41946035623550415,1.416281819343567,-1.2387624979019165
1764808555.401621,-1.5479609711453317,3.17739201875329,0.3909007672935724,1.3196789026260376,0.1701531857252121,1.1479219198226929,,,,,,
1764808555.409946,,,,,,,0.46886909008026123,-0.26936075091362,0.019475817680358887,0.24807262420654297,1.333252191543579,-1.1214582920074463
1764808555.411673,-1.4538473939478396,3.170554866209626,0.7200277999803424,1.1967157125473022,0.09238062053918839,1.0218886137008667,,,,,,
1764808555.419976,,,,,,,0.47729605436325073,-0.22459697723388672,-0.03572714328765869,0.1796090304851532,1.1909096240997314,-0.9677119255065918
1764808555.421725,-1.4145242683410644,3.080193042761087,0.8616787889003753,1.051279067993164,0.01782560907304287,0.9174957871437073,,,,,,
1764808555.430006,,,,,,,0.48570525646209717,-0.21011507511138916,-0.07094162702560425,0.18139468133449554,0.987466037273407,-0.8317115306854248
1764808555.431777,-1.5001330520436167,2.813967871928215,0.8256564584046602,0.9053985476493835,-0.02923324704170227,0.8168917298316956,,,,,,
1764808555.440036,,,,,,,0.4686623811721802,-0.2281419038772583,-0.06929683685302734,0.11441640555858612,0.84842848777771,-0.7115287184715271
1764808555.441829,-1.7363459464505313,2.752148836874962,0.7786872019588947,0.7709459066390991,-0.05558309331536293,0.6989088654518127,,,,,,
1764808555.450066,,,,,,,0.44907552003860474,-0.2525208592414856,-0.06157118082046509,0.01135286781936884,0.7374130487442017,-0.5741399526596069
1764808555.451882,-1.9656053684577344,2.8917501997888087,0.7831132017076015,0.6479965448379517,-0.07479913532733917,0.5610277056694031,,,,,,
1764808555.460096,,,,,,,0.4496622085571289,-0.2796441614627838,-0.06099832057952881,-0.06541334837675095,0.6208683252334595,-0.42233073711395264
1764808555.461934,-2.149430196240544,3.0879186685770748,0.9013006051927804,0.5319886803627014,-0.07713378220796585,0.41306158900260925,,,,,,
1764808555.470126,,,,,,,0.46404558420181274,-0.2873210906982422,-0.08136636018753052,-0.09746076166629791,0.498215913772583,-0.27484193444252014
1764808555.471986,-2.2905329036280513,3.2437183020979163,1.135872162133455,0.4153158664703369,-0.07327832281589508,0.26143956184387207,,,,,,
1764808555.480157,,,,,,,0.4902786612510681,-0.27930575609207153,-0.10801941156387329,-0.09007677435874939,0.33859696984291077,-0.13874854147434235
1764808555.482038,-2.3567235778942703,3.285261441841721,1.282286712193489,0.26858970522880554,-0.08775363862514496,0.11461785435676575,,,,,,
1764808555.490187,,,,,,,0.5219628810882568,-0.26106080412864685,-0.1318170428276062,-0.0865909680724144,0.13667581975460052,0.0039321803487837315
1764808555.49209,-2.3740564054891466,3.195094848704338,1.1586422123461961,0.0937047079205513,-0.12284637242555618,-0.027949148789048195,,,,,,
1764808555.500217,,,,,,,0.5379882454872131,-0.2520551383495331,-0.1337108016014099,-0.06497737020254135,-0.07209045439958572,0.14197273552417755
1764808555.502142,-2.305095681987703,3.043648734217882,0.8303560143977403,-0.07761607319116592,-0.16972774267196655,-0.17631177604198456,,,,,,
1764808555.510247,,,,,,,0.5217546820640564,-0.2737417221069336,-0.11235344409942627,-0.053626175969839096,-0.24255512654781342,0.2804672122001648
1764808555.512194,-2.1805039644181727,2.996322919419408,0.5332733484864235,-0.22617144882678986,-0.17418640851974487,-0.32819080352783203,,,,,,
1764808555.520277,,,,,,,0.4876862168312073,-0.28357622027397156,-0.06568992137908936,-0.07318167388439178,-0.3677181005477905,0.4295429289340973
1764808555.522246,-2.083228708319366,3.1672733603209253,0.5104740721791983,-0.3456837236881256,-0.13347816467285156,-0.47675809264183044,,,,,,
1764808555.530307,,,,,,,0.4687172770500183,-0.2904914617538452,-0.033292293548583984,-0.10353504866361618,-0.4671434760093689,0.5901374220848083
1764808555.532299,-2.005843855343759,3.4364795927911995,0.6518488745063543,-0.4399455189704895,-0.08744516223669052,-0.6084969639778137,,,,,,
1764808555.540337,,,,,,,0.47795021533966064,-0.3065716624259949,-0.0293806791305542,-0.15766414999961853,-0.5788503289222717,0.7404208183288574
1764808555.542351,-2.0228864678204057,3.5894887188106774,0.774633834914863,-0.5267645716667175,-0.09532918781042099,-0.7359161376953125,,,,,,
1764808555.550367,,,,,,,0.5050017237663269,-0.2986655831336975,-0.03443348407745361,-0.21685370802879333,-0.7143641710281372,0.8782119750976562
1764808555.552403,-2.0596680922508237,3.4391526113927364,0.7514923210412263,-0.6093800663948059,-0.16233593225479126,-0.8653838634490967,,,,,,
1764808555.560397,,,,,,,0.5093145370483398,-0.28323760628700256,-0.037213921546936035,-0.28512057662010193,-0.8442407250404358,1.006163477897644
1764808555.562455,-2.095361921444535,3.1564994528502224,0.7033361928984523,-0.7090399861335754,-0.24258509278297424,-1.0056639909744263,,,,,,
1764808555.570427,,,,,,,0.4882184863090515,-0.2600948214530945,-0.029059290885925293,-0.32550662755966187,-0.9377216696739197,1.1357611417770386
1764808555.572507,-2.1107997290730474,3.0596944446116683,0.5730336964666843,-0.8207526803016663,-0.293083131313324,-1.1521929502487183,,,,,,
1764808555.580458,,,,,,,0.4775967597961426,-0.25202181935310364,-0.010407686233520508,-0.3380197286605835,-1.0322929620742798,1.2423076629638672
1764808555.582559,-2.0731448289394376,3.12724237870574,0.2807029012575745,-0.9353994727134705,-0.3004898726940155,-1.2905151844024658,,,,,,
1764808555.590488,,,,,,,0.48282164335250854,-0.2445245236158371,0.028306126594543457,-0.40226155519485474,-1.1398769617080688,1.3360751867294312
1764808555.592611,-2.040693050406873,3.235595201396942,-0.047339843323826784,-1.0339990854263306,-0.29548683762550354,-1.4161561727523804,,,,,,
1764808555.600518,,,,,,,0.4830999970436096,-0.22840607166290283,0.07389938831329346,-0.45817482471466064,-1.2212828397750854,1.447998285293579
1764808555.602663,-1.9782029842242597,3.360748352241516,-0.36369039654582735,-1.1058437824249268,-0.2946014702320099,-1.534919261932373,,,,,,
1764808555.610548,,,,,,,0.464560866355896,-0.21263515949249268,0.09447944164276123,-0.4617956876754761,-1.287217617034912,1.5685065984725952
1764808555.612716,-1.8277008725896478,3.3605198041826485,-0.5612900671809912,-1.1563961505889893,-0.29347068071365356,-1.6358500719070435,,,,,,
1764808555.620578,,,,,,,0.4308435916900635,-0.19572113454341888,0.115261971950531,-0.43537139892578125,-1.3435068130493164,1.6672641038894653
1764808555.622768,-1.656112133784592,3.2131922309309244,-0.5260334603607655,-1.2023382186889648,-0.292398601770401,-1.729155421257019,,,,,,
1764808555.630608,,,,,,,0.40331655740737915,-0.17118045687675476,0.12326383590698242,-0.4133385419845581,-1.358139991760254,1.7736855745315552
1764808555.63282,-1.5620157999828457,3.181205439561605,-0.3517062365025282,-1.255905032157898,-0.30038490891456604,-1.8251363039016724,,,,,,
1764808555.640638,,,,,,,0.41215091943740845,-0.16579657793045044,0.1307411789894104,-0.4215935468673706,-1.3894917964935303,1.8785022497177124
1764808555.642872,-1.5964569987669586,3.247158213418722,-0.2648246563851833,-1.3079092502593994,-0.3269905149936676,-1.9266235828399658,,,,,,
1764808555.650668,,,,,,,0.44855451583862305,-0.17863991856575012,0.1524965763092041,-0.515855610370636,-1.4434088468551636,1.958039402961731
1764808555.652924,-1.6119167259663343,3.422076388907432,-0.4231616994291544,-1.355621576309204,-0.37674394249916077,-2.035667896270752,,,,,,
1764808555.660698,,,,,,,0.4842526316642761,-0.17346516251564026,0.19832825660705566,-0.6390123963356018,-1.4913862943649292,2.0211424827575684
1764808555.662976,-1.5581877661272883,3.6644238405466076,-0.7645423567503691,-1.3781383037567139,-0.43531084060668945,-2.146660566329956,,,,,,
1764808555.670728,,,,,,,0.48630261421203613,-0.13256797194480896,0.23279577493667603,-0.7147074341773987,-1.5455341339111328,2.092613458633423
1764808555.673028,-1.3472536898836494,3.788701377600431,-1.237218905454874,-1.3704720735549927,-0.4604795575141907,-2.246802806854248,,,,,,
1764808555.680758,,,,,,,0.44727039337158203,-0.0945138931274414,0.23274612426757812,-0.6749745011329651,-1.605889081954956,2.143824577331543
1764808555.68308,-0.9703408236712217,3.5080385160923,-1.4945532060846685,-1.3606960773468018,-0.4629942774772644,-2.308168411254883,,,,,,
1764808555.690789,,,,,,,0.3715420365333557,-0.07039514183998108,0.2259175181388855,-0.6177575588226318,-1.6050515174865723,2.1865975856781006
1764808555.693133,-0.6652402709990739,3.062801762977242,-1.412635970376432,-1.380746841430664,-0.45012933015823364,-2.344346761703491,,,,,,
1764808555.700819,,,,,,,0.31553560495376587,-0.022771388292312622,0.23531097173690796,-0.5314263105392456,-1.5276862382888794,2.246526002883911
1764808555.703185,-0.5042816472798586,2.8709570026069877,-1.114695226331055,-1.4232925176620483,-0.4310227036476135,-2.3793487548828125,,,,,,
1764808555.710849,,,,,,,0.32663291692733765,0.016841143369674683,0.22642779350280762,-0.3938966989517212,-1.4605844020843506,2.3259050846099854
1764808555.713237,-0.42927112222015856,3.1183535543292757,-0.6941513081848621,-1.4723865985870361,-0.4074997901916504,-2.418897867202759,,,,,,
1764808555.720879,,,,,,,0.39661526679992676,0.033112525939941406,0.20875602960586548,-0.34130242466926575,-1.467142105102539,2.3852224349975586
1764808555.723289,-0.4616267469018697,3.6180303381621837,-0.4670560784742236,-1.510979413986206,-0.3922032415866852,-2.4559950828552246,,,,,,
1764808555.730909,,,,,,,0.4749046564102173,0.012842386960983276,0.1996009349822998,-0.36828184127807617,-1.5310475826263428,2.4303648471832275
1764808555.733341,-0.5780909798562527,3.86643694370985,-0.41912995969504113,-1.5223172903060913,-0.40508148074150085,-2.4787185192108154,,,,,,
1764808555.740939,,,,,,,0.4812610149383545,-0.06509977579116821,0.1859171986579895,-0.5062878727912903,-1.5574054718017578,2.4914138317108154
1764808555.743393,-0.7589315311312675,3.730679396742582,-0.6182628312468529,-1.5255862474441528,-0.4278187155723572,-2.51737380027771,,,,,,
1764808555.750969,,,,,,,0.4371928572654724,-0.0958605408668518,0.19017302989959717,-0.6801438331604004,-1.5782729387283325,2.5444226264953613
1764808555.753445,-0.8440425944447517,3.235242150175571,-1.0416101163759828,-1.5223525762557983,-0.46984657645225525,-2.590214490890503,,,,,,
1764808555.760999,,,,,,,0.38928765058517456,-0.056945085525512695,0.2287682294845581,-0.7778835892677307,-1.6345995664596558,2.580169677734375
1764808555.763498,-0.7266612466454505,2.641361480513215,-1.426931037710607,-1.539299726486206,-0.49739551544189453,-2.69844913482666,,,,,,
1764808555.771029,,,,,,,0.3416023850440979,0.015609204769134521,0.25704073905944824,-0.8023106455802917,-1.6075035333633423,2.66762375831604
1764808555.77355,-0.3731067519277334,2.4909943934351206,-1.7440125355556606,-1.5691900253295898,-0.4813629984855652,-2.823988199234009,,,,,,
1764808555.78106,,,,,,,0.33140337467193604,0.05777263641357422,0.27030372619628906,-0.7160658836364746,-1.6381884813308716,2.7289011478424072
1764808555.783602,0.20572773977220057,2.5581658954322335,-1.864170362330973,-1.6027573347091675,-0.4347357451915741,-2.910844087600708,,,,,,
1764808555.79109,,,,,,,0.3325768709182739,0.06697428226470947,0.2670867443084717,-0.7029846906661987,-1.6790761947631836,2.7689404487609863
1764808555.793654,0.7054144604772329,2.7572821081101893,-1.637109911672771,-1.6575058698654175,-0.39793217182159424,-2.952672004699707,,,,,,
1764808555.80112,,,,,,,0.3441689610481262,0.08277273178100586,0.25810104608535767,-0.7122585773468018,-1.6544052362442017,2.838973045349121
1764808555.803706,0.9572902034401893,3.11040113402009,-1.3659234651707113,-1.7143219709396362,-0.41350430250167847,-2.967792272567749,,,,,,
1764808555.81115,,,,,,,0.3814029097557068,0.06872612237930298,0.2509945333003998,-0.6988434195518494,-1.676796555519104,2.8917574882507324
1764808555.813758,0.9771505036860704,3.4166415043771265,-1.143105035996437,-1.7494707107543945,-0.4697004556655884,-2.9759953022003174,,,,,,
1764808555.82118,,,,,,,0.4146002531051636,0.0763084888458252,0.2453925907611847,-0.6966677308082581,-1.684356451034546,2.913404703140259
1764808555.82381,0.7210901685148478,3.7959091170221564,-0.7547603829264641,-1.7765501737594604,-0.5627829432487488,-2.996534585952759,,,,,,
1764808555.831211,,,,,,,0.4537133574485779,0.12029248476028442,0.22929877042770386,-0.7029682397842407,-1.6861366033554077,2.9439451694488525
1764808555.833862,0.3820078512638807,4.225183746373653,-0.6191641640007496,-1.8104132413864136,-0.6618261933326721,-3.023054838180542,,,,,,
1764808555.84124,,,,,,,0.5137904286384583,0.11474061012268066,0.21318486332893372,-0.7815325260162354,-1.7927618026733398,2.999091625213623
1764808555.843915,0.18439912053942678,4.225159196454286,-0.9823157774947583,-1.8319131135940552,-0.726412296295166,-3.056596279144287,,,,,,
1764808555.85127,,,,,,,0.5396027565002441,0.06762880086898804,0.20975497364997864,-0.919043242931366,-1.9193352460861206,3.0599141120910645
1764808555.853967,0.16905658997893333,3.753164784795046,-1.2857915054440499,-1.8440464735031128,-0.7328541874885559,-3.112145185470581,,,,,,
1764808555.8613,,,,,,,0.4878097176551819,0.05656987428665161,0.22835704684257507,-1.016430139541626,-1.9140397310256958,3.1385788917541504
1764808555.864019,0.3741641520261764,3.33567470126152,-1.219941607439518,-1.87776780128479,-0.6864975094795227,-3.189565658569336,,,,,,
1764808555.87133,,,,,,,0.4347637891769409,0.0923147201538086,0.23427194356918335,-0.9608539342880249,-1.905505895614624,3.2234296798706055
1764808555.874071,0.72882573120296,3.0414190754696726,-1.0548048212528227,-1.9416706562042236,-0.6230149269104004,-3.278414726257324,,,,,,
1764808555.88136,,,,,,,0.4200930595397949,0.15018194913864136,0.22571426630020142,-0.7405893206596375,-1.990221381187439,3.2874844074249268
1764808555.884123,1.0049392588436603,2.76675545437634,-1.0765758504908531,-2.0301907062530518,-0.5779324173927307,-3.3694207668304443,,,,,,
1764808555.891391,,,,,,,0.42093926668167114,0.21169525384902954,0.18487334251403809,-0.4144090414047241,-2.074740409851074,3.3670520782470703
1764808555.894175,1.1115233182966708,2.558277246852219,-1.2189479202270508,-2.16159725189209,-0.5542891621589661,-3.4504756927490234,,,,,,
1764808555.901421,,,,,,,0.4245927929878235,0.24635881185531616,0.1303076148033142,-0.010485600680112839,-2.1626265048980713,3.4481921195983887
1764808555.904227,1.054272906333208,2.435960488477349,-1.4850304677188395,-2.338886260986328,-0.5215240716934204,-3.5103580951690674,,,,,,
1764808555.911451,,,,,,,0.4277288317680359,0.27149057388305664,0.12233644723892212,0.28003543615341187,-2.2562291622161865,3.5127031803131104
1764808555.914279,0.9901181218087672,2.615279237012565,-1.8319862948238848,-2.5174684524536133,-0.46022453904151917,-3.529783010482788,,,,,,
1764808555.921481,,,,,,,0.4441559314727783,0.3176650404930115,0.188938707113266,0.31049397587776184,-2.321903705596924,3.5673248767852783
1764808555.924332,1.156428627949953,3.146045278853178,-2.10533094227314,-2.6153385639190674,-0.3769342303276062,-3.5158612728118896,,,,,,
1764808555.931511,,,,,,,0.45576807856559753,0.29919856786727905,0.30719465017318726,0.017495907843112946,-2.3112072944641113,3.635923385620117
1764808555.934384,1.5307921019405126,3.7393820508971807,-2.1320605437666176,-2.5668768882751465,-0.32303503155708313,-3.5313045978546143,,,,,,
1764808555.941541,,,,,,,0.4355250597000122,0.19449269771575928,0.4198508858680725,-0.5333575010299683,-2.226640462875366,3.6861870288848877
1764808555.944436,2.069065450671315,4.324707658182084,-1.8844874664336442,-2.4105536937713623,-0.3331291377544403,-3.572270631790161,,,,,,
1764808555.951571,,,,,,,0.41350075602531433,0.15557372570037842,0.45944690704345703,-1.0814218521118164,-2.149996042251587,3.65368914604187
1764808555.954488,2.5788211454480887,4.670898053872585,-1.5375608654230832,-2.256303548812866,-0.425983726978302,-3.5882022380828857,,,,,,
1764808555.961601,,,,,,,0.3971276879310608,0.23896652460098267,0.40886616706848145,-1.3765467405319214,-2.077159881591797,3.577498435974121
1764808555.96454,2.943606059232354,4.690311194872856,-1.2269330737620592,-2.175222873687744,-0.6012593507766724,-3.5567843914031982,,,,,,
1764808555.971631,,,,,,,0.41538065671920776,0.3663930296897888,0.3203827738761902,-1.4206149578094482,-2.0187571048736572,3.5009961128234863
1764808555.974592,3.0978911965370175,4.490647285184264,-1.0289455728530883,-2.185560941696167,-0.8044857382774353,-3.5013632774353027,,,,,,
1764808555.981662,,,,,,,0.47531089186668396,0.4538828134536743,0.26807016134262085,-1.3133091926574707,-2.0206637382507324,3.4499101638793945
1764808555.984644,2.9769255605101583,4.287617990715802,-0.9715903853408991,-2.256223440170288,-0.9580146670341492,-3.4596683979034424,,,,,,
1764808555.991692,,,,,,,0.5460344552993774,0.4754382371902466,0.2277604192495346,-1.1298807859420776,-2.1164112091064453,3.4513278007507324
1764808555.994696,2.652643337506056,3.930522754651308,-1.1518494834661483,-2.3523707389831543,-1.0285595655441284,-3.4406118392944336,,,,,,
1764808556.001722,,,,,,,0.5723875761032104,0.46306031942367554,0.21786493062973022,-0.9217997789382935,-2.248929262161255,3.4789187908172607
1764808556.004749,2.284955103495717,3.4069624064058064,-1.5453893670916556,-2.431130886077881,-1.0219308137893677,-3.4481041431427,,,,,,
1764808556.011752,,,,,,,0.5091725587844849,0.45484018325805664,0.24489319324493408,-0.7421389222145081,-2.246525764465332,3.5467960834503174
1764808556.014802,2.0030337663590907,3.011263298919797,-1.9030776006132364,-2.481335163116455,-0.9284613728523254,-3.4865670204162598,,,,,,
1764808556.021782,,,,,,,0.4055653214454651,0.42711180448532104,0.27870726585388184,-0.6491163969039917,-2.1760141849517822,3.631096839904785
1764808556.024853,1.8699410546869037,2.914273289503157,-1.9188843876846133,-2.5206398963928223,-0.7881531119346619,-3.545344829559326,,,,,,
1764808556.031812,,,,,,,0.34358155727386475,0.3708311915397644,0.3057766556739807,-0.6543816924095154,-2.09059476852417,3.7290313243865967
1764808556.034905,1.838177550679445,3.011746114000678,-1.7225043219722806,-2.5379514694213867,-0.6572379469871521,-3.608982801437378,,,,,,
1764808556.041842,,,,,,,0.3422585129737854,0.2851107120513916,0.31626594066619873,-0.7255370616912842,-2.031590223312378,3.8402321338653564
1764808556.044957,1.7402274640589952,3.086275285284221,-1.5125965200364588,-2.531195878982544,-0.587612509727478,-3.672534942626953,,,,,,
1764808556.051872,,,,,,,0.3731542229652405,0.20854580402374268,0.3144858479499817,-0.8003748059272766,-1.9950333833694458,3.95241641998291
1764808556.055009,1.5054051472276448,3.0753847656965254,-1.3164492401666938,-2.510065793991089,-0.588814377784729,-3.735565185546875,,,,,,
1764808556.061902,,,,,,,0.40294545888900757,0.1698465347290039,0.29940295219421387,-0.8272461891174316,-1.9793692827224731,4.060225009918213
1764808556.065061,1.1425339581102132,2.9708991398274898,-1.1538579006791114,-2.50822377204895,-0.6218697428703308,-3.8191444873809814,,,,,,
1764808556.071932,,,,,,,0.4217613935470581,0.16096866130828857,0.2769199013710022,-0.770805835723877,-1.9546681642532349,4.166214466094971
1764808556.075114,0.7851052523076534,2.833618913337588,-1.0681155537247657,-2.5455477237701416,-0.6480081677436829,-3.9374606609344482,,,,,,
1764808556.081962,,,,,,,0.4374113976955414,0.1768285632133484,0.2525976300239563,-0.596229076385498,-1.9236273765563965,4.284596920013428
1764808556.085166,0.596453150498867,2.8200580054968594,-1.136391217571497,-2.618075370788574,-0.6593970656394958,-4.062117576599121,,,,,,
1764808556.091993,,,,,,,0.46339982748031616,0.20826637744903564,0.2310086488723755,-0.37346071004867554,-1.9180454015731812,4.388957977294922
1764808556.095218,0.5795680666714906,3.010569179175794,-1.297306732801348,-2.724226474761963,-0.6655561327934265,-4.161987781524658,,,,,,
1764808556.102023,,,,,,,0.4981555938720703,0.2599480152130127,0.24552834033966064,-0.25926855206489563,-1.903611660003662,4.489729881286621
1764808556.10527,0.6311380949109793,3.41217751070559,-1.5536260111697018,-2.8256309032440186,-0.663966715335846,-4.227663040161133,,,,,,
1764808556.112053,,,,,,,0.5352619886398315,0.2763066291809082,0.28916311264038086,-0.22526505589485168,-1.8767904043197632,4.599878311157227
1764808556.115322,0.6814671831786632,3.873156607353687,-1.9113557457454502,-2.87589168548584,-0.6375423073768616,-4.27266788482666,,,,,,
1764808556.122083,,,,,,,0.5525332689285278,0.2044336199760437,0.35886967182159424,-0.324739545583725,-1.842281460762024,4.701193809509277
1764808556.125374,0.685374712011218,4.2592625415861605,-2.1009505352318287,-2.867488384246826,-0.6093835234642029,-4.317964553833008,,,,,,
1764808556.132113,,,,,,,0.5531600713729858,0.13718336820602417,0.4311913251876831,-0.537485659122467,-1.8099809885025024,4.796393871307373
1764808556.135426,0.6497217993497848,4.602795408505201,-2.1119804632902146,-2.830583095550537,-0.6084319949150085,-4.375629901885986,,,,,,
1764808556.142143,,,,,,,0.5606319308280945,0.13330429792404175,0.46962666511535645,-0.8178309798240662,-1.7500814199447632,4.891635894775391
1764808556.145478,0.5753033949643374,4.810221768888831,-2.129889044946432,-2.7745113372802734,-0.6258091330528259,-4.464428424835205,,,,,,
1764808556.152173,,,,,,,0.5805801153182983,0.14287924766540527,0.481878399848938,-0.9542710781097412,-1.6478781700134277,4.988032341003418
1764808556.155531,0.61806292476058,4.8543888273954385,-2.0836736756078897,-2.692859411239624,-0.6424669027328491,-4.58292818069458,,,,,,
1764808556.162203,,,,,,,0.5926183462142944,0.14282691478729248,0.49936556816101074,-0.9920902252197266,-1.5730276107788086,5.037378311157227
1764808556.165583,0.7645850268483162,4.86251894235909,-1.9377216284930705,-2.605459690093994,-0.6578489542007446,-4.70806360244751,,,,,,
1764808556.172233,,,,,,,0.6047594547271729,0.21828413009643555,0.5014082193374634,-0.9716941714286804,-1.4804502725601196,5.102252960205078
1764808556.175635,0.9477285943686962,4.963072489476204,-1.9097499179840087,-2.5262837409973145,-0.6675596833229065,-4.8130292892456055,,,,,,
1764808556.182263,,,,,,,0.6242396235466003,0.3134009838104248,0.49115443229675293,-0.8266229033470154,-1.3728941679000854,5.157141208648682
1764808556.185687,1.1072609846770762,5.20525159881115,-1.9708312864124773,-2.470367431640625,-0.6881071329116821,-4.8753767013549805,,,,,,
1764808556.192294,,,,,,,0.6451019048690796,0.3877907991409302,0.4924890995025635,-0.800724446773529,-1.2655384540557861,5.1864752769470215
1764808556.19574,1.222257483166456,5.640273247382044,-2.0185282726109026,-2.4466404914855957,-0.7263711094856262,-4.901068687438965,,,,,,
1764808556.202324,,,,,,,0.6784458756446838,0.43081802129745483,0.48175573348999023,-0.8189593553543091,-1.1244550943374634,5.1805901527404785
1764808556.205791,1.3738368686437605,6.211585526883602,-2.206577732351422,-2.428253173828125,-0.7494809627532959,-4.908968925476074,,,,,,
1764808556.212354,,,,,,,0.7227526307106018,0.42966794967651367,0.48490703105926514,-0.890034556388855,-1.0237056016921997,5.1313252449035645
1764808556.215843,1.681802747619152,6.6951540564805265,-2.3887620994508265,-2.378303289413452,-0.7496843934059143,-4.882951736450195,,,,,,
1764808556.222384,,,,,,,0.7652991414070129,0.48285096883773804,0.5035706758499146,-0.9298834204673767,-0.9919345378875732,5.097710609436035
1764808556.225895,2.0124206033855674,6.859246302050352,-2.543399703454971,-2.2785205841064453,-0.7273450493812561,-4.807467460632324,,,,,,
1764808556.232414,,,,,,,0.7706243991851807,0.5523713827133179,0.5168936252593994,-0.9006350040435791,-0.9708783030509949,5.041595458984375
1764808556.235948,2.164215677440166,6.71103668526709,-2.5572704078972337,-2.1551859378814697,-0.7093404531478882,-4.699177265167236,,,,,,
1764808556.242444,,,,,,,0.7288573384284973,0.5799615979194641,0.5287413597106934,-0.9244399070739746,-0.895042896270752,4.958023548126221
1764808556.246,2.164219769093394,6.4872992415517565,-2.512669049626589,-2.0385284423828125,-0.7059069871902466,-4.603592395782471,,,,,,
1764808556.252474,,,,,,,0.6735203862190247,0.5796407461166382,0.5185095071792603,-1.0161962509155273,-0.7703430652618408,4.883878231048584
1764808556.256052,2.1538485972046852,6.211674958732724,-2.506898649531603,-1.929627537727356,-0.7103065252304077,-4.540702819824219,,,,,,
1764808556.262504,,,,,,,0.6366313099861145,0.5562995672225952,0.49807870388031006,-1.1029397249221802,-0.6584995985031128,4.788017272949219
1764808556.266104,2.299877070556581,5.871927455571294,-2.46438169631958,-1.8182811737060547,-0.7234054803848267,-4.500183582305908,,,,,,
1764808556.272534,,,,,,,0.6090580224990845,0.5459458231925964,0.4976210594177246,-1.2314900159835815,-0.5421194434165955,4.695459365844727
1764808556.276156,2.5566148665979505,5.631165227296948,-2.45427297475934,-1.7066824436187744,-0.7279267311096191,-4.454408168792725,,,,,,
1764808556.282564,,,,,,,0.5831952691078186,0.5887988805770874,0.49332308769226074,-1.3032443523406982,-0.46816134452819824,4.625078201293945
1764808556.286209,2.7316578375101086,5.3277030894815915,-2.731420521622896,-1.5664377212524414,-0.6894819140434265,-4.398007392883301,,,,,,
1764808556.292594,,,,,,,0.5464813113212585,0.6170427799224854,0.48183000087738037,-1.283325433731079,-0.37634462118148804,4.52768087387085
1764808556.29626,2.825746864788234,5.087653393390775,-2.8388229117214676,-1.422282099723816,-0.5995650887489319,-4.322359085083008,,,,,,
1764808556.302625,,,,,,,0.48440873622894287,0.6338024735450745,0.4844543933868408,-1.2979768514633179,-0.23126012086868286,4.464783668518066
1764808556.306314,2.864237338963151,4.887532972106337,-2.9173183562874794,-1.2734472751617432,-0.47815564274787903,-4.237936019897461,,,,,,
1764808556.312655,,,,,,,0.43693435192108154,0.6357390284538269,0.4826434850692749,-1.1100692749023438,-0.07052025198936462,4.412576198577881
1764808556.316365,2.7944606229037046,4.726987605363131,-2.9819734915494918,-1.1325229406356812,-0.3176008462905884,-4.171861171722412,,,,,,
1764808556.322685,,,,,,,0.3968003988265991,0.6465246081352234,0.4694713354110718,-0.9214146733283997,0.16650988161563873,4.382214546203613
1764808556.326417,2.6506243988990783,4.869342066377401,-3.026854251283407,-1.0187548398971558,-0.10176967829465866,-4.131550312042236,,,,,,
1764808556.332715,,,,,,,0.4115484952926636,0.7125250101089478,0.39803099632263184,-0.6985823512077332,0.2780694365501404,4.366828441619873
1764808556.336469,2.6839187657356263,4.5413440377205605,-2.9448306325912474,-0.9149645566940308,0.10895799845457077,-4.097665786743164,,,,,,
1764808556.342745,,,,,,,0.43344640731811523,0.7284384965896606,0.33462750911712646,-0.42533084750175476,0.2974007725715637,4.317103862762451
1764808556.346521,2.910226352199912,3.647360477542877,-2.636367033226788,-0.8421770334243774,0.2715526819229126,-4.042787551879883,,,,,,
1764808556.352775,,,,,,,0.3850982189178467,0.7127766013145447,0.2877691984176636,-0.11069434881210327,0.37797605991363525,4.2542266845703125
1764808556.356573,3.2647076063737273,2.4958558619916436,-2.2399583161666987,-0.8323720693588257,0.3795156478881836,-3.9340946674346924,,,,,,
1764808556.362805,,,,,,,0.2897503972053528,0.7528008222579956,0.23459696769714355,0.18884126842021942,0.5070581436157227,4.156052589416504
1764808556.366625,3.340074397525191,1.7677613676726818,-1.9005704400978982,-0.8084951639175415,0.43134599924087524,-3.7768287658691406,,,,,,
1764808556.372835,,,,,,,0.18849951028823853,0.800382137298584,0.14511919021606445,0.4285601079463959,0.6918612718582153,4.002410888671875
1764808556.376678,3.3374469716310498,1.7314888618081807,-1.778304827388376,-0.7891156077384949,0.5283942222595215,-3.665605306625366,,,,,,
1764808556.382865,,,,,,,0.13498997688293457,0.7795701026916504,0.06393063068389893,0.5121970176696777,0.7965937852859497,3.8153347969055176
1764808556.38673,3.8987808779537674,1.7934516892462968,-1.5704117262758315,-0.7472970485687256,0.5838059782981873,-3.585416555404663,,,,,,
1764808556.392895,,,,,,,0.1219022274017334,0.7081778049468994,0.02865302562713623,0.4640454947948456,0.8530688285827637,3.61847186088562
1764808556.396782,4.61671112113297,1.9136650456011295,-1.4418521279886365,-0.6813862323760986,0.5080036520957947,-3.463176727294922,,,,,,
1764808556.402926,,,,,,,0.11996006965637207,0.6617868542671204,0.04211759567260742,0.33192381262779236,0.9175029397010803,3.4527275562286377
1764808556.406834,5.0693286321491,2.240601582506299,-1.6110829054906963,-0.5703722238540649,0.3904011845588684,-3.2876827716827393,,,,,,
1764808556.412956,,,,,,,0.1301875114440918,0.6507037878036499,0.0667715072631836,0.1819433867931366,0.9180627465248108,3.2746012210845947
1764808556.416886,5.209094830235839,2.5336960555642842,-1.769679768514633,-0.43243563175201416,0.2546028792858124,-3.0832135677337646,,,,,,
1764808556.422986,,,,,,,0.13967877626419067,0.6307393908500671,0.08738638460636139,0.0054433513432741165,0.8602700233459473,3.069622278213501
1764808556.426938,5.190793449869751,2.5185475862711666,-1.761080282473564,-0.2794174253940582,0.12069662660360336,-2.8847529888153076,,,,,,
1764808556.433016,,,,,,,0.1316404938697815,0.6133089065551758,0.06604039669036865,-0.23290903866291046,0.7796808481216431,2.861180543899536
1764808556.43699,5.187852720242739,1.9628765280157328,-1.3990952285408973,-0.15903215110301971,-0.05828004702925682,-2.706721544265747,,,,,,
1764808556.443046,,,,,,,0.10522931814193726,0.6013957262039185,0.004135623574256897,-0.45062604546546936,0.7176046967506409,2.6373560428619385
1764808556.447042,5.247297427380085,1.1946627892762423,-0.9178222625352441,-0.09514366090297699,-0.27593177556991577,-2.5526325702667236,,,,,,
1764808556.453076,,,,,,,0.06696450710296631,0.6239933371543884,-0.043774351477622986,-0.6582939624786377,0.6486560106277466,2.433917760848999
1764808556.457094,5.373562338858843,0.40511984678208823,-0.6752727124527096,-0.07504931092262268,-0.46122920513153076,-2.4171578884124756,,,,,,
1764808556.463106,,,,,,,0.03550887107849121,0.6776571273803711,-0.1312648057937622,-0.7540854215621948,0.5567548274993896,2.240875244140625
1764808556.467147,5.5298810278177255,-0.2851508205771446,-0.6221231599368154,-0.07894324511289597,-0.5934417247772217,-2.281614303588867,,,,,,
1764808556.473136,,,,,,,-0.006545603275299072,0.7136968374252319,-0.16912637650966644,-0.784325897693634,0.48521116375923157,2.035513401031494
1764808556.477199,5.681017345702648,-0.5677233150988817,-0.7439946587622165,-0.08347967267036438,-0.631138265132904,-2.1241989135742188,,,,,,
1764808556.483166,,,,,,,-0.05639463663101196,0.7392707467079163,-0.1764308214187622,-0.8288189768791199,0.4391126334667206,1.8606926202774048
1764808556.487251,5.749422188886999,-0.6012929917454719,-0.8285894431166351,-0.07162012904882431,-0.581676185131073,-1.9409170150756836,,,,,,
1764808556.493196,,,,,,,-0.09230315685272217,0.7286043167114258,-0.1992809772491455,-0.8878899812698364,0.3967585265636444,1.6829664707183838
1764808556.497303,5.7597927762538195,-0.6545066955387592,-0.8054828544259071,-0.052094630897045135,-0.5124190449714661,-1.7417969703674316,,,,,,
1764808556.503226,,,,,,,-0.12504464387893677,0.6976280212402344,-0.210562601685524,-0.94866943359375,0.3657505512237549,1.5030186176300049
1764808556.507355,5.710606428280473,-0.8023720289289951,-0.7781507569946349,-0.014984596520662308,-0.4401957392692566,-1.5395408868789673,,,,,,
1764808556.513257,,,,,,,-0.15626424551010132,0.6953797936439514,-0.21939587593078613,-0.9814521670341492,0.32440149784088135,1.3391000032424927
1764808556.517407,5.593884421172738,-1.1247896271049975,-0.707742757294327,0.008449356071650982,-0.37416931986808777,-1.3568382263183594,,,,,,
1764808556.523287,,,,,,,-0.17672187089920044,0.7190077304840088,-0.25263381004333496,-0.9730609655380249,0.2699430584907532,1.1626089811325073
1764808556.527459,5.583399852037429,-1.4859095886409281,-0.5789996191337704,0.00709833949804306,-0.3416151702404022,-1.2026855945587158,,,,,,
1764808556.533317,,,,,,,-0.20136284828186035,0.7418838739395142,-0.26272642612457275,-0.9457577466964722,0.2033509910106659,0.9897916913032532
1764808556.537512,5.688873319900035,-1.8060574883192777,-0.6612544162333012,0.022637084126472473,-0.31250229477882385,-1.0692750215530396,,,,,,
1764808556.543347,,,,,,,-0.23503613471984863,0.7476779222488403,-0.24808277189731598,-0.8917274475097656,0.13588859140872955,0.837114155292511
1764808556.547565,5.851758527767658,-1.9842776279628276,-0.8163061539962887,0.0748075470328331,-0.22761967778205872,-0.9410061836242676,,,,,,
1764808556.553377,,,,,,,-0.2879393696784973,0.7345830202102661,-0.23666323721408844,-0.7952765226364136,0.14412760734558105,0.6936067938804626
1764808556.557616,6.038789165854453,-1.9412457109659909,-0.8437620239377022,0.12850406765937805,-0.08612700551748276,-0.807456910610199,,,,,,
1764808556.563407,,,,,,,-0.3366842269897461,0.7281241416931152,-0.24721884727478027,-0.6783583164215088,0.21346567571163177,0.5730165839195251
1764808556.567668,6.240237620872259,-1.9255705874502658,-0.7605112015381454,0.16869404911994934,0.05240843817591667,-0.6544879078865051,,,,,,
1764808556.573437,,,,,,,-0.3552934527397156,0.7359439134597778,-0.28196442127227783,-0.5298559665679932,0.2294670045375824,0.45785194635391235
1764808556.57772,6.3208677393794055,-2.2033336358636615,-0.6215725403167307,0.18169985711574554,0.13175705075263977,-0.4946973919868469,,,,,,
1764808556.583467,,,,,,,-0.34511303901672363,0.7426538467407227,-0.3168734312057495,-0.36967387795448303,0.2592552602291107,0.34373924136161804
1764808556.587772,6.37095308201909,-2.3764497303664682,-0.4981798232734203,0.14988791942596436,0.1469731330871582,-0.34712132811546326,,,,,,
1764808556.593497,,,,,,,-0.3092001676559448,0.7444542050361633,-0.3295356035232544,-0.20979659259319305,0.23553289473056793,0.24591012299060822
1764808556.597824,6.3285045178681605,-2.501096100732684,-0.5429916094243527,0.115882009267807,0.13055501878261566,-0.2006080597639084,,,,,,
1764808556.603527,,,,,,,-0.27379149198532104,0.7231060266494751,-0.31403017044067383,-0.08563284575939178,0.09460905194282532,0.11961763352155685
1764808556.607876,6.139392981854081,-2.56236860781908,-0.6078524963915348,0.11186781525611877,0.12063347548246384,-0.06084572523832321,,,,,,
1764808556.613558,,,,,,,-0.31613433361053467,0.6387300491333008,-0.23720906674861908,-0.05401446297764778,0.028166646137833595,-0.004767434671521187
1764808556.617929,5.823770450645685,-2.4316940632045267,-0.7130664365351199,0.12053081393241882,0.1393570899963379,0.06106020510196686,,,,,,
1764808556.623588,,,,,,,-0.3162553310394287,0.6382567882537842,-0.23731623589992523,-0.09202390909194946,0.04142412915825844,-0.11367400735616684
1764808556.627981,5.508773357859254,-2.0862825429320333,-0.8435976271562278,0.1484231799840927,0.17954568564891815,0.16959698498249054,,,,,,
1764808556.633618,,,,,,,-0.33807677030563354,0.60167396068573,-0.1975775957107544,-0.13784119486808777,0.06678620725870132,-0.20220759510993958
1764808556.638033,5.293194086158275,-1.754409134146571,-0.9230117940023541,0.19489507377147675,0.23376205563545227,0.27666857838630676,,,,,,
1764808556.643649,,,,,,,-0.32555335760116577,0.5747964382171631,-0.19718383252620697,-0.12588904798030853,0.07541058957576752,-0.3201613426208496
1764808556.648085,5.1175727308362715,-1.501322261828184,-0.7829075961329043,0.24128521978855133,0.279371440410614,0.39656779170036316,,,,,,
1764808556.653678,,,,,,,-0.2957562804222107,0.5726509094238281,-0.1827923208475113,-0.020106425508856773,0.10273568332195282,-0.4534112513065338
1764808556.658137,4.978211606419086,-1.4006915578216312,-0.5571886232115328,0.27431774139404297,0.3093501031398773,0.5462411642074585,,,,,,
1764808556.663708,,,,,,,-0.2565363049507141,0.601226270198822,-0.21108378469944,0.22882868349552155,0.08499050885438919,-0.5824813842773438
1764808556.668189,4.727608075349033,-1.4644675721615552,-0.24375994878560303,0.2585884928703308,0.2819618284702301,0.7098456621170044,,,,,,
1764808556.673738,,,,,,,-0.2213752269744873,0.6416855454444885,-0.24896825850009918,0.456884503364563,0.011701653711497784,-0.7322114706039429
1764808556.678241,4.459889743348956,-1.5071376701086758,-0.049427463252842425,0.1915799230337143,0.2000824362039566,0.8671655058860779,,,,,,
1764808556.683768,,,,,,,-0.1796121597290039,0.6485556364059448,-0.2655763626098633,0.6130232214927673,-0.07595735788345337,-0.8678439259529114
1764808556.688293,4.221298721633851,-1.5148580352276564,-0.17112375164180993,0.11986018717288971,0.10597217082977295,1.002692461013794,,,,,,
1764808556.693798,,,,,,,-0.1499037742614746,0.5723522901535034,-0.24522458016872406,0.6541211605072021,-0.144725501537323,-0.9901866316795349
1764808556.698347,3.853592659705877,-1.2339613649636507,-0.6457911819025873,0.12329033762216568,0.08618195354938507,1.1126490831375122,,,,,,
1764808556.703828,,,,,,,-0.15505123138427734,0.46309447288513184,-0.12236404418945312,0.5461410880088806,-0.18679624795913696,-1.0904685258865356
1764808556.708398,3.406495081155002,-0.5649351456850766,-1.1003507668972015,0.23823484778404236,0.2675275206565857,1.2268426418304443,,,,,,
1764808556.713859,,,,,,,-0.17542749643325806,0.3685699999332428,-0.017862558364868164,0.3732151687145233,-0.16898129880428314,-1.1741029024124146
1764808556.718451,2.886485995650291,-0.17665128289163112,-0.9884345526359974,0.37497085332870483,0.5123593807220459,1.3351448774337769,,,,,,
1764808556.723889,,,,,,,-0.19119244813919067,0.2980926036834717,-0.0248715877532959,0.22503018379211426,-0.12238425016403198,-1.2741831541061401
1764808556.728503,2.4719591458365318,-0.3590168517768383,-0.5045397136941552,0.4272901713848114,0.6042373776435852,1.4072399139404297,,,,,,
1764808556.733919,,,,,,,-0.17417186498641968,0.28902333974838257,-0.060244932770729065,0.12084386497735977,-0.07368754595518112,-1.3474475145339966
1764808556.738554,2.4036095399707555,-0.8716215062439441,-0.11278817479014396,0.3930048942565918,0.5295681953430176,1.427435278892517,,,,,,
1764808556.743949,,,,,,,-0.11573326587677002,0.32508888840675354,-0.12365376949310303,0.14585715532302856,-0.12783387303352356,-1.3923208713531494
1764808556.748606,2.620251764728129,-1.4824235000908375,0.05655000860914588,0.296034574508667,0.36636143922805786,1.4004240036010742,,,,,,
1764808556.753979,,,,,,,-0.0644979476928711,0.3420454263687134,-0.15677309036254883,0.21752680838108063,-0.28003138303756714,-1.4496501684188843
1764808556.758658,2.9232445314660667,-1.8106360482811927,-0.1951473090469837,0.19984200596809387,0.2522500455379486,1.3559393882751465,,,,,,
1764808556.764009,,,,,,,-0.06641656160354614,0.31640028953552246,-0.11331355571746826,0.2508716881275177,-0.3730066120624542,-1.4549431800842285
1764808556.768711,3.0452310349732636,-1.5316145242393016,-0.8149569313444197,0.17155572772026062,0.30836600065231323,1.3372613191604614,,,,,,
1764808556.774039,,,,,,,-0.11557644605636597,0.2380990982055664,-0.045700207352638245,0.28564003109931946,-0.3300354480743408,-1.3985675573349
1764808556.778763,2.907975358402729,-0.8507529057383537,-1.0797533845484255,0.18459749221801758,0.4923906922340393,1.3522300720214844,,,,,,
1764808556.784069,,,,,,,-0.1542971134185791,0.1446748673915863,-0.01752258837223053,0.22069324553012848,-0.16399240493774414,-1.3549073934555054
1764808556.788815,2.6439216863900423,-0.049528877800703044,-0.9128267923355102,0.1709350347518921,0.6216119527816772,1.3683925867080688,,,,,,
1764808556.7941,,,,,,,-0.10501301288604736,0.12008028477430344,-0.010885119438171387,0.09316112846136093,-0.12483515590429306,-1.2892827987670898
1764808556.798867,2.340018380678445,0.3167483203679323,-0.7475275090634822,0.1553313136100769,0.5785709619522095,1.378828525543213,,,,,,
1764808556.804129,,,,,,,-0.0054931640625,0.12289834767580032,-0.006205543875694275,0.06402667611837387,-0.2618696987628937,-1.2384172677993774
1764808556.80892,2.009862004943937,0.21039923871457575,-0.6506196249723434,0.14693179726600647,0.41701996326446533,1.367932677268982,,,,,,
1764808556.814159,,,,,,,0.044536590576171875,0.13929715752601624,0.007056117057800293,0.08790404349565506,-0.3978850543498993,-1.2198723554611206
1764808556.818971,1.8271590207979083,-0.17611761440634727,-0.6920401612497866,0.12797781825065613,0.2665005028247833,1.3177220821380615,,,,,,
1764808556.82419,,,,,,,0.02082914113998413,0.16840103268623352,0.0046210139989852905,0.13921810686588287,-0.4387350082397461,-1.2033804655075073
1764808556.829024,1.7005306828342377,-0.364095762476325,-0.8300513323627412,0.12874940037727356,0.19172118604183197,1.253944993019104,,,,,,
1764808556.83422,,,,,,,-0.043118953704833984,0.17041192948818207,0.06406150758266449,0.21484147012233734,-0.342692106962204,-1.17120361328125
1764808556.839075,1.571701473825425,-0.027159809604287145,-0.8914601791799068,0.1918117254972458,0.3045539855957031,1.2220443487167358,,,,,,
1764808556.84425,,,,,,,-0.09471094608306885,0.15544863045215607,0.10781395435333252,0.32000359892845154,-0.12024492770433426,-1.1775214672088623
1764808556.849128,1.4628497617013752,0.8352905481904744,-0.3656267714358866,0.19850674271583557,0.4898969233036041,1.2272192239761353,,,,,,
1764808556.85428,,,,,,,-0.060727715492248535,0.17574118077754974,0.01592838764190674,0.3598969578742981,0.09184788167476654,-1.2157471179962158
1764808556.85918,1.5705433898314833,1.5755629715591668,0.30320787079334255,0.11601027846336365,0.4581373929977417,1.3000433444976807,,,,,,
1764808556.86431,,,,,,,0.09794604778289795,0.22170691192150116,-0.062024712562561035,0.45092934370040894,-0.07802504301071167,-1.252486228942871
1764808556.869232,1.690431021363288,1.2349743413984775,0.6121674369812011,0.022559745237231255,0.15300855040550232,1.4432930946350098,,,,,,
1764808556.87434,,,,,,,0.2303680181503296,0.2194751501083374,-0.13676846027374268,0.5897620916366577,-0.3834693729877472,-1.353450059890747
1764808556.879284,1.4814255750946699,0.5033475813001393,0.4459726661741733,-0.060174815356731415,-0.22678564488887787,1.5612198114395142,,,,,,
1764808556.88437,,,,,,,0.22423923015594482,0.18456856906414032,-0.09955300390720367,0.6271892189979553,-0.5455546975135803,-1.4328192472457886
1764808556.889336,1.0060400596924126,0.23928046528398988,-0.3090753015220165,-0.05540894344449043,-0.36563196778297424,1.616350531578064,,,,,,
1764808556.8944,,,,,,,0.10692262649536133,0.11804592609405518,0.056383006274700165,0.5619982481002808,-0.540732741355896,-1.425329566001892
1764808556.899388,0.304165609909594,0.43814357998371123,-1.0475370222069322,0.08844729512929916,-0.15234951674938202,1.624637246131897,,,,,,
1764808556.90443,,,,,,,-0.02451688051223755,-0.003553047776222229,0.16378748416900635,0.46159276366233826,-0.4377208948135376,-1.4113435745239258
1764808556.909441,-0.30562092328444124,0.3593582125604152,-0.8584370305001735,0.2493269443511963,0.21011707186698914,1.599991798400879,,,,,,
1764808556.91446,,,,,,,-0.10990077257156372,-0.07983309775590897,0.11541841924190521,0.3131617307662964,-0.2183363288640976,-1.4530225992202759
1764808556.919493,-0.4416474233862012,0.14312661443054675,0.14607318927645682,0.22920969128608704,0.38575947284698486,1.5417524576187134,,,,,,
1764808556.924491,,,,,,,-0.08968329429626465,-0.0013154670596122742,0.004627212882041931,0.2465205043554306,-0.002535339677706361,-1.4584556818008423
1764808556.929545,0.09261975844316184,0.48271278955042357,0.9096141138993203,-4.9274880439043045e-05,0.27164751291275024,1.4752256870269775,,,,,,
1764808556.934521,,,,,,,0.08531337976455688,0.15074163675308228,-0.11617480218410492,0.29449012875556946,0.012180489487946033,-1.4449329376220703
1764808556.939597,0.8140489496540277,1.473936826774478,0.5959890401184559,-0.26169952750205994,-0.048255130648612976,1.4540117979049683,,,,,,
1764808556.944551,,,,,,,0.3200206756591797,0.1990940272808075,-0.11697710305452347,0.38678595423698425,-0.35461482405662537,-1.4680062532424927
1764808556.949649,1.0958596660230309,2.414494506600499,-0.5727192236900329,-0.3036215305328369,-0.32217100262641907,1.5110973119735718,,,,,,
1764808556.954581,,,,,,,0.43281346559524536,0.05642867088317871,0.0813823938369751,0.36727645993232727,-0.7461796402931213,-1.5354276895523071
