timestamp,phone_accel_x,phone_accel_y,phone_accel_z,phone_gyro_x,phone_gyro_y,phone_gyro_z,watch_accel_x,watch_accel_y,watch_accel_z,watch_gyro_x,watch_gyro_y,watch_gyro_z
1764808607.312739,0.4667591413542628,0.24844927564561364,-0.10708441019058226,-0.0902782678604126,0.023852942511439323,-0.12718628346920013,,,,,,
1764808607.315635,,,,,,,0.020425498485565186,0.01893693208694458,0.00436091423034668,0.002349500311538577,-0.03800784423947334,0.1921568214893341
1764808607.322792,0.33395869062691924,0.2461158642619848,-0.10619946231590584,-0.07660283893346786,0.006231391336768866,-0.12503184378147125,,,,,,
1764808607.325665,,,,,,,0.011467218399047852,0.017032325267791748,0.009842276573181152,-0.09119456261396408,-0.05007675662636757,0.17381109297275543
1764808607.332844,0.18224603415876625,0.12694821756780147,-0.05944938331246376,-0.07464834302663803,0.015527155250310898,-0.1274673044681549,,,,,,
1764808607.335695,,,,,,,0.005175411701202393,0.013615310192108154,0.009514212608337402,-0.1522170752286911,-0.05368401110172272,0.16051246225833893
1764808607.342897,0.09117664696276187,-0.036523265755176545,-0.04299160325275734,-0.08409813046455383,0.04313316196203232,-0.13732120394706726,,,,,,
1764808607.345725,,,,,,,-0.0031527280807495117,0.012710869312286377,0.002891000360250473,-0.19300605356693268,-0.0530318021774292,0.1551360785961151
1764808607.352949,0.07636310871243476,-0.17021628140807152,-0.05762569328295067,-0.1004057228565216,0.07133044302463531,-0.14556607604026794,,,,,,
1764808607.355755,,,,,,,-0.012832581996917725,0.028673529624938965,-0.005237463861703873,-0.1827327162027359,-0.05303792655467987,0.15664128959178925
1764808607.363002,0.09620236617028713,-0.25901509332358835,-0.11840075397491455,-0.11326682567596436,0.10178200900554657,-0.14763979613780975,,,,,,
1764808607.365785,,,,,,,-0.022914350032806396,0.04626530408859253,-0.012032508850097656,-0.12340281158685684,-0.046268437057733536,0.16984178125858307
1764808607.373054,0.17620675399452446,-0.2943096940666437,-0.20473576959278433,-0.11988131701946259,0.1331457942724228,-0.13569365441799164,,,,,,
1764808607.375815,,,,,,,-0.030833303928375244,0.052351176738739014,-0.017269078642129898,-0.018638236448168755,-0.042656924575567245,0.17691820859909058
1764808607.383106,0.274909412547946,-0.2753355290055275,-0.2527297294437885,-0.12414836138486862,0.16116653382778168,-0.11687885224819183,,,,,,
1764808607.385846,,,,,,,-0.03712815046310425,0.04578644037246704,-0.01925092563033104,0.08299703896045685,-0.039951954036951065,0.181890070438385
1764808607.393159,0.31541122654527426,-0.30784429842233657,-0.2158277117704041,-0.1256498396396637,0.18044301867485046,-0.09374476969242096,,,,,,
1764808607.395876,,,,,,,-0.03796565532684326,0.04333227872848511,-0.013435065746307373,0.18006616830825806,-0.040602829307317734,0.18598593771457672
1764808607.403211,0.2977379149496555,-0.3267185102403164,-0.17758476434946058,-0.1219288781285286,0.18911880254745483,-0.07436814159154892,,,,,,
1764808607.405906,,,,,,,-0.039571404457092285,0.045119643211364746,-0.010959144681692123,0.24372051656246185,-0.042365044355392456,0.17791123688220978
1764808607.413264,0.21203794583231209,-0.3643926995962858,-0.13791680736038833,-0.10954118520021439,0.18499755859375,-0.05219253525137901,,,,,,
1764808607.415936,,,,,,,-0.042887091636657715,0.04565662145614624,-0.010359108448028564,0.27826178073883057,-0.04853611811995506,0.16268514096736908
1764808607.423316,0.131982704603672,-0.4313081810057163,-0.10884615916609763,-0.09069233387708664,0.1645127385854721,-0.023171894252300262,,,,,,
1764808607.425966,,,,,,,-0.05301344394683838,0.030657708644866943,-0.003496408462524414,0.2796820402145386,-0.04946902394294739,0.13217809796333313
1764808607.433368,0.03525251516699791,-0.5161661463409662,-0.053489634657837445,-0.07097721844911575,0.131120964884758,0.010842797346413136,,,,,,
1764808607.435996,,,,,,,-0.06520712375640869,0.011394679546356201,0.008429344743490219,0.2484576553106308,-0.03631434217095375,0.08759591728448868
1764808607.443421,-0.09017010026872158,-0.533904632127285,-0.003887107099033892,-0.05295257270336151,0.09386779367923737,0.041046056896448135,,,,,,
1764808607.446026,,,,,,,-0.07288616895675659,0.000478208065032959,0.019890010356903076,0.19637182354927063,-0.012827924452722073,0.042562663555145264
1764808607.453473,-0.21147505125254393,-0.4481482566475868,-0.0074667556840926404,-0.03584682196378708,0.06259935349225998,0.06127702444791794,,,,,,
1764808607.456056,,,,,,,-0.06638622283935547,-0.006261289119720459,0.027540504932403564,0.13893066346645355,-0.0004988200962543488,-0.0023659293074160814
1764808607.463526,-0.3070791592687368,-0.2985761193394661,-0.037167408877611156,-0.020298607647418976,0.04157957062125206,0.07319957762956619,,,,,,
1764808607.466086,,,,,,,-0.04689282178878784,-0.013654530048370361,0.029127363115549088,0.07735837250947952,-0.005333256907761097,-0.04249444231390953
1764808607.473578,-0.35251112314462657,-0.1559516092121601,-0.06212645703461021,-0.014489187858998775,0.02298697456717491,0.08133979141712189,,,,,,
1764808607.476116,,,,,,,-0.023891985416412354,-0.01867622137069702,0.022167567163705826,0.029291030019521713,-0.022669637575745583,-0.06634191423654556
1764808607.483631,-0.3467641039252281,-0.10003682976663113,-0.07317742788102477,-0.019411426037549973,0.00899035669863224,0.09185248613357544,,,,,,
1764808607.486146,,,,,,,-0.0026833415031433105,-0.025239109992980957,0.021297156810760498,-0.0027278889901936054,-0.04246171563863754,-0.08213046193122864
1764808607.493683,-0.2947276272177696,-0.035573417684435844,-0.10971592773795127,-0.032360777258872986,-0.00133711495436728,0.10196557641029358,,,,,,
1764808607.496176,,,,,,,0.01251673698425293,-0.029322803020477295,0.024468425661325455,-0.02301626279950142,-0.05682627484202385,-0.08582627028226852
1764808607.503735,-0.25703356411755085,0.06285539236366748,-0.12013915860746055,-0.0481218658387661,-0.01285545900464058,0.10860246419906616,,,,,,
1764808607.506207,,,,,,,0.024302780628204346,-0.03403353691101074,0.03016555681824684,-0.03519090265035629,-0.07062331587076187,-0.07530864328145981
1764808607.513788,-0.2824564669266343,0.18001403732299803,-0.18367668801639228,-0.05312754213809967,-0.020357849076390266,0.10124361515045166,,,,,,
1764808607.516237,,,,,,,0.032636821269989014,-0.04873216152191162,0.03864908590912819,-0.052956100553274155,-0.08960366249084473,-0.06135108321905136
1764808607.52384,-0.3132148855447769,0.2559843473255634,-0.21467388382647185,-0.05371358245611191,-0.027019495144486427,0.08368608355522156,,,,,,
1764808607.526267,,,,,,,0.038716793060302734,-0.06245899200439453,0.04553484916687012,-0.06765434890985489,-0.09932473301887512,-0.04486371949315071
1764808607.533893,-0.35914427754878997,0.2894254291564226,-0.19350363349318503,-0.054631307721138,-0.038865234702825546,0.0570124015212059,,,,,,
1764808607.536297,,,,,,,0.03904539346694946,-0.06965923309326172,0.04961228370666504,-0.09140878170728683,-0.10095033049583435,-0.03127281367778778
1764808607.543945,-0.37485418011695143,0.2554232063114643,-0.13312252228856086,-0.06015972048044205,-0.05169006064534187,0.027410132810473442,,,,,,
1764808607.546327,,,,,,,0.03643906116485596,-0.06281602382659912,0.05118804797530174,-0.11175347119569778,-0.09824322909116745,-0.01143226120620966
1764808607.553998,-0.34091683920174837,0.18473989680111408,-0.12501173307988792,-0.059065692126750946,-0.06129049137234688,-0.003499047365039587,,,,,,
1764808607.556357,,,,,,,0.03170907497406006,-0.055803000926971436,0.054296139627695084,-0.12211854755878448,-0.09441493451595306,0.013904053717851639
1764808607.56405,-0.35302257979810236,0.12393559174835682,-0.13952774968836457,-0.055979520082473755,-0.06123124435544014,-0.029098674654960632,,,,,,
1764808607.566387,,,,,,,0.021964967250823975,-0.05592435598373413,0.0537496842443943,-0.11067281663417816,-0.07371710985898972,0.033624496310949326
1764808607.574102,-0.3554126898050308,0.10833528703451156,-0.1779985693147406,-0.05059114843606949,-0.04603099077939987,-0.048856135457754135,,,,,,
1764808607.576417,,,,,,,0.009389162063598633,-0.054965198040008545,0.054122451692819595,-0.0985180139541626,-0.04310247302055359,0.05508770793676376
1764808607.584155,-0.3440685812309384,0.08445581427514552,-0.18189499223139136,-0.03900168091058731,-0.02420797012746334,-0.06585202366113663,,,,,,
1764808607.586447,,,,,,,0.0013177990913391113,-0.04605144262313843,0.049287501722574234,-0.059032928198575974,-0.01347906794399023,0.08309458196163177
1764808607.594207,-0.36079467510432,0.020436638829112053,-0.14742573639657347,-0.029034003615379333,-0.0087709566578269,-0.07954679429531097,,,,,,
1764808607.596477,,,,,,,-0.0031104087829589844,-0.034217774868011475,0.03799736872315407,0.0006262417882680893,0.014092639088630676,0.11136749386787415
1764808607.60426,-0.37097178572565315,-0.047779988306760786,-0.11704820685479789,-0.025932971388101578,0.004046731628477573,-0.08683151006698608,,,,,,
1764808607.606507,,,,,,,-0.007582902908325195,-0.025205373764038086,0.02884775772690773,0.07131106406450272,0.030325137078762054,0.12669797241687775
1764808607.614312,-0.3697723468080163,-0.10629705920517445,-0.06656180913355202,-0.029605738818645477,0.012502534314990044,-0.08839957416057587,,,,,,
1764808607.616538,,,,,,,-0.00776064395904541,-0.02696967124938965,0.02157295122742653,0.12542429566383362,0.04284146428108215,0.12988445162773132
1764808607.624364,-0.3973261241659522,-0.12839140211343764,-0.016119944673776625,-0.03839172422885895,0.020007481798529625,-0.08568757027387619,,,,,,
1764808607.626568,,,,,,,-0.008188128471374512,-0.025552570819854736,0.019469384104013443,0.1628827303647995,0.05438360571861267,0.1332821100950241
1764808607.634417,-0.40991760245263575,-0.06882394537925719,-0.024551051877997814,-0.03894379734992981,0.022824041545391083,-0.08367795497179031,,,,,,
1764808607.636598,,,,,,,-0.00646817684173584,-0.022673428058624268,0.016114413738250732,0.20574399828910828,0.05857621878385544,0.1319025307893753
1764808607.644469,-0.41164632594138384,-0.026843583261966703,-0.043064029168151316,-0.03101601079106331,0.017574738711118698,-0.07591810077428818,,,,,,
1764808607.646628,,,,,,,-0.0052231550216674805,-0.020169854164123535,0.012746341526508331,0.22178101539611816,0.05457615107297897,0.12290823459625244
1764808607.654522,-0.37963176978230473,-0.01087561427950859,-0.032790508967638014,-0.023656100034713745,0.003795543685555458,-0.06520100682973862,,,,,,
1764808607.656658,,,,,,,-0.0036957859992980957,-0.019019782543182373,0.014492746442556381,0.21137790381908417,0.03945712000131607,0.11377113312482834
1764808607.664574,-0.3580854161456227,-0.05524257927238941,-0.03636661388874054,-0.01914306730031967,-0.01310647651553154,-0.052968550473451614,,,,,,
1764808607.666688,,,,,,,-0.0023977160453796387,-0.030351877212524414,0.01663881540298462,0.1712704300880432,0.024190546944737434,0.09507787227630615
1764808607.674627,-0.3293105725601315,-0.11790975558757781,-0.02836100208759308,-0.01889353059232235,-0.034385137259960175,-0.046041134744882584,,,,,,
1764808607.676718,,,,,,,-0.005448102951049805,-0.04480797052383423,0.019374430179595947,0.10393190383911133,0.007693862542510033,0.069424107670784
1764808607.684679,-0.33086072461158034,-0.14895546671450138,0.006988543713092803,-0.020410330966114998,-0.06410712748765945,-0.04358672723174095,,,,,,
1764808607.686748,,,,,,,-0.007860302925109863,-0.05108565092086792,0.023049533367156982,0.009404866956174374,-0.0007944309618324041,0.04540638625621796
1764808607.694731,-0.3331023660585284,-0.10273089115619659,0.03750292444229126,-0.023862052708864212,-0.09910186380147934,-0.046260543167591095,,,,,,
1764808607.696778,,,,,,,-0.007755577564239502,-0.05337649583816528,0.024507761001586914,-0.08819803595542908,-0.006223018281161785,0.03324253112077713
1764808607.704784,-0.30185645618438717,-0.07739537436962127,0.017550854259729385,-0.022284256294369698,-0.13203252851963043,-0.05401909351348877,,,,,,
1764808607.706808,,,,,,,-0.005218923091888428,-0.05753093957901001,0.024432603269815445,-0.1798243671655655,-0.01401995588093996,0.020526204258203506
1764808607.714836,-0.26877076366245745,-0.014841010779142379,-0.013545673738978803,-0.022088248282670975,-0.1562100350856781,-0.061164356768131256,,,,,,
1764808607.716838,,,,,,,-0.0025878548622131348,-0.052993059158325195,0.02586013451218605,-0.24255691468715668,-0.014297190122306347,0.012624938040971756
1764808607.724889,-0.19464871187508104,0.06853869869709014,-0.05642736861016601,-0.015092998743057251,-0.18064650893211365,-0.06660817563533783,,,,,,
1764808607.726868,,,,,,,0.0029868483543395996,-0.039684951305389404,0.024777594953775406,-0.27028921246528625,-0.013796250335872173,0.01283186487853527
1764808607.734941,-0.12604483898729085,0.14364099369347094,-0.08533431414272635,-0.006941327825188637,-0.19333086907863617,-0.07147643715143204,,,,,,
1764808607.736899,,,,,,,0.008281290531158447,-0.020852982997894287,0.01988840103149414,-0.27802082896232605,-0.01215414423495531,0.018933234736323357
1764808607.744994,-0.07025777757465838,0.15639000062942504,-0.08398991379644721,0.002249371260404587,-0.1891946643590927,-0.07703342288732529,,,,,,
1764808607.746929,,,,,,,0.011919558048248291,-0.005050480365753174,0.01508176326751709,-0.25723323225975037,-0.008065659552812576,0.03008655272424221
1764808607.755046,-0.02130728418380022,0.15216332284510134,-0.07402385210990906,0.008096074685454369,-0.16979007422924042,-0.08210141956806183,,,,,,
1764808607.756959,,,,,,,0.014027714729309082,8.082389831542969e-05,0.0072708092629909515,-0.22489304840564728,1.6235047951340675e-05,0.03998086228966713
1764808607.765098,-0.013023147702217101,0.12106558926999568,-0.07298804278876632,0.007053538225591183,-0.14626285433769226,-0.08757880330085754,,,,,,
1764808607.766989,,,,,,,0.01196897029876709,0.0007341504096984863,-0.0017424821853637695,-0.1737624853849411,0.007893333211541176,0.04689230024814606
1764808607.775151,-0.04747048396617174,0.047484220230579376,-0.04148582006599754,0.0015410610940307379,-0.11590148508548737,-0.09753236919641495,,,,,,
1764808607.777019,,,,,,,0.010301291942596436,0.00018310546875,-0.00263422355055809,-0.14173658192157745,0.0173648651689291,0.04684163257479668
1764808607.785203,-0.06105448042154312,0.00767886406481266,-0.03450082001686096,-7.68294557929039e-05,-0.085875004529953,-0.10649431496858597,,,,,,
1764808607.787049,,,,,,,0.004087328910827637,0.011536180973052979,-6.332993507385254e-08,-0.11459311097860336,0.030712362378835678,0.06694795936346054
1764808607.795256,-0.06488339105993508,0.013698270484805106,-0.05021506996657699,0.006396249867975712,-0.05415302887558937,-0.11989747732877731,,,,,,
1764808607.797079,,,,,,,-0.004220724105834961,0.01902228593826294,-0.0006002224981784821,-0.07490184158086777,0.052665334194898605,0.0899500846862793
1764808607.805308,-0.06715601216703652,0.0007990414232015609,-0.08977558452580124,0.015809625387191772,-0.021980302408337593,-0.12933599948883057,,,,,,
1764808607.807109,,,,,,,-0.011859893798828125,0.017152905464172363,-0.003468334674835205,-0.040176354348659515,0.0723239853978157,0.10203364491462708
1764808607.81536,-0.027294541899859904,-0.010251344901323317,-0.12322777227256447,0.01964990422129631,0.015917012467980385,-0.1334623098373413,,,,,,
1764808607.817139,,,,,,,-0.01439964771270752,0.012764334678649902,-0.003454267978668213,-0.009006687439978123,0.08463524281978607,0.1127416118979454
1764808607.825413,0.02860357867181301,-0.06124561907947063,-0.115300486404635,0.02268282137811184,0.05069595202803612,-0.13511496782302856,,,,,,
1764808607.827169,,,,,,,-0.014790534973144531,0.01128917932510376,-0.004704892635345459,0.020366115495562553,0.09421463310718536,0.12350664287805557
1764808607.835465,0.06374883407205342,-0.11166472371816634,-0.08264792460296302,0.0257561095058918,0.07955929636955261,-0.13591977953910828,,,,,,
1764808607.837199,,,,,,,-0.015029609203338623,0.01719444990158081,-0.007497727870941162,0.05299122631549835,0.09912391006946564,0.13008345663547516
1764808607.845518,0.07965718182176351,-0.13564239615499973,-0.08462828476522118,0.026364294812083244,0.10159030556678772,-0.13769996166229248,,,,,,
1764808607.84723,,,,,,,-0.015016674995422363,0.01759207248687744,-0.01485651545226574,0.08082711696624756,0.10474690794944763,0.12781578302383423
1764808607.85557,0.08379325871318578,-0.16000059234201908,-0.017690007002092896,0.020151939243078232,0.1173279881477356,-0.1422547698020935,,,,,,
1764808607.85726,,,,,,,-0.017078042030334473,0.019629836082458496,-0.01628541760146618,0.08592237532138824,0.1179596483707428,0.1298421025276184
1764808607.865623,0.09952946476638316,-0.14366612813472748,-0.014472798521257936,0.013930131681263447,0.1299329400062561,-0.14963194727897644,,,,,,
1764808607.86729,,,,,,,-0.016101479530334473,0.02271568775177002,-0.014950217679142952,0.09943818300962448,0.12236637622117996,0.14052191376686096
1764808607.875675,0.13902619337439537,-0.10790683248937129,-0.06585453764703124,0.013482454232871532,0.14816148579120636,-0.15139976143836975,,,,,,
1764808607.87732,,,,,,,-0.011349260807037354,0.01728600263595581,-0.015684785321354866,0.10852891206741333,0.11946459859609604,0.1397256851196289
1764808607.885727,0.17264467759877442,-0.07103051551282405,-0.0835375303864479,0.014913646504282951,0.1651061773300171,-0.1469295769929886,,,,,,
1764808607.88735,,,,,,,-0.00987464189529419,0.01810234785079956,-0.01424872875213623,0.11063014715909958,0.1142573207616806,0.14489781856536865
1764808607.89578,0.18655746761709452,-0.06820610574185848,-0.10583937856554984,0.01664257049560547,0.17877697944641113,-0.14094145596027374,,,,,,
1764808607.89738,,,,,,,-0.010514378547668457,0.01856684684753418,-0.012906014919281006,0.1279180943965912,0.11433162540197372,0.1566540151834488
1764808607.905832,0.18372370549589395,-0.09154781836271285,-0.12360884401202202,0.013980565592646599,0.19024619460105896,-0.13984882831573486,,,,,,
1764808607.90741,,,,,,,-0.012278854846954346,0.01574692130088806,-0.0136185884475708,0.13857312500476837,0.11708133667707443,0.15934300422668457
1764808607.915885,0.20958149259090422,-0.09473872335851193,-0.0840215510437265,0.007335179951041937,0.19455066323280334,-0.14430829882621765,,,,,,
1764808607.91744,,,,,,,-0.011599540710449219,0.019696533679962158,-0.015007197856903076,0.14762268960475922,0.11498595774173737,0.16510355472564697
1764808607.925937,0.23581278917342424,-0.10087561867833136,-0.053924518943764266,0.0016312666703015566,0.19112521409988403,-0.14694897830486298,,,,,,
1764808607.92747,,,,,,,-0.008627653121948242,0.020159482955932617,-0.015829145908355713,0.1531602144241333,0.11295077204704285,0.17354685068130493
1764808607.93599,0.26914368862807747,-0.0826619165956974,-0.05967029605414718,-0.0056543429382145405,0.1822105348110199,-0.14740623533725739,,,,,,
1764808607.9375,,,,,,,-0.005638778209686279,0.01891505718231201,-0.018181800842285156,0.1549360454082489,0.11242853105068207,0.17722900211811066
1764808607.946042,0.3020873423308134,-0.03294190013706684,-0.0787841983795166,-0.01594989374279976,0.16920357942581177,-0.1476837694644928,,,,,,
1764808607.94753,,,,,,,-0.0027187466621398926,0.020539194345474243,-0.015918970108032227,0.15371152758598328,0.1059032529592514,0.185183584690094
1764808607.956094,0.31580957821309563,0.00014729951620101928,-0.0929705081095919,-0.020029323175549507,0.1566198766231537,-0.14346212148666382,,,,,,
1764808607.95756,,,,,,,0.001758575439453125,0.019837617874145508,-0.013968167826533318,0.15228904783725739,0.09856411069631577,0.19072550535202026
1764808607.966147,0.31044600535333156,0.053018473482131956,-0.08500581284072249,-0.024287149310112,0.14392094314098358,-0.14031051099300385,,,,,,
1764808607.967591,,,,,,,0.005632877349853516,0.018421202898025513,-0.013248680159449577,0.14413978159427643,0.09265482425689697,0.19012229144573212
1764808607.976199,0.3185518626585603,0.13182546821534633,-0.08486903471853584,-0.02634550631046295,0.12387719750404358,-0.1352638155221939,,,,,,
1764808607.97762,,,,,,,0.008156538009643555,0.01896575093269348,-0.014872908592224121,0.1293247491121292,0.08601582795381546,0.18577434122562408
1764808607.986252,0.3348553472056985,0.16896949621737004,-0.07468553088903426,-0.024121107533574104,0.09497779607772827,-0.1289442777633667,,,,,,
1764808607.987651,,,,,,,0.013548612594604492,0.020803987979888916,-0.014539122581481934,0.11026690155267715,0.06662429124116898,0.17220793664455414
1764808607.996304,0.35335049657821654,0.1460311037003994,-0.056298846859671174,-0.014960633590817451,0.05356377363204956,-0.11296717077493668,,,,,,
1764808607.997681,,,,,,,0.015576541423797607,0.021197199821472168,-0.011503098532557487,0.08613841980695724,0.045924872159957886,0.14419814944267273
1764808608.006357,0.35081308705508707,0.1015273605853319,-0.025323899414017796,-0.004093012306839228,0.0062413886189460754,-0.09594210982322693,,,,,,
1764808608.007711,,,,,,,0.010237455368041992,0.0228387713432312,-0.006716430187225342,0.04152727499604225,0.03753538057208061,0.10787635296583176
1764808608.016409,0.30267391004711386,0.06918050373196602,0.01247252808213234,0.010824417695403099,-0.0340474471449852,-0.07689012587070465,,,,,,
1764808608.017741,,,,,,,0.0021823644638061523,0.02385115623474121,-0.0002650022506713867,-0.006459621712565422,0.03350601717829704,0.07164224982261658
1764808608.026461,0.23224632886350152,0.07319266198277473,-0.01170793691780418,0.02895210310816765,-0.054213713854551315,-0.060111816972494125,,,,,,
1764808608.027771,,,,,,,-0.006810903549194336,0.028253912925720215,0.0072700995951890945,-0.05946638062596321,0.044536564499139786,0.03852158039808273
1764808608.036514,0.17291472671180963,0.10951660577356814,-0.09160276342034339,0.044102828949689865,-0.048496704548597336,-0.04817872494459152,,,,,,
1764808608.037801,,,,,,,-0.009586930274963379,0.03595629334449768,0.007204532623291016,-0.09612349420785904,0.05607897415757179,0.019862212240695953
1764808608.046566,0.12294161227494478,0.13639584487080572,-0.17949965806007384,0.058684732764959335,-0.02915886417031288,-0.040913600474596024,,,,,,
1764808608.047831,,,,,,,-0.0049591064453125,0.036023467779159546,0.004981754347681999,-0.1279706358909607,0.05757247284054756,-0.004015957936644554
1764808608.056619,0.13719927020817993,0.11022153917253016,-0.23146938967425376,0.07236779481172562,0.004249160643666983,-0.03401334956288338,,,,,,
1764808608.057861,,,,,,,-0.0034132003784179688,0.03917321562767029,0.007924558594822884,-0.17247946560382843,0.04860560968518257,-0.028654392808675766
1764808608.066671,0.19531243648082017,0.1267991644859314,-0.2546633278548717,0.0819898396730423,0.04753624275326729,-0.025791797786951065,,,,,,
1764808608.067891,,,,,,,-0.0036658644676208496,0.0399935245513916,0.015538038685917854,-0.2533726990222931,0.051777433604002,-0.04751543328166008
1764808608.076723,0.27274843512177466,0.2929991959899664,-0.31534258175585417,0.10718387365341187,0.1018303707242012,-0.021444987505674362,,,,,,
1764808608.077922,,,,,,,-0.008842945098876953,0.04288989305496216,0.029679657891392708,-0.3747304379940033,0.08716897666454315,-0.06557931751012802
1764808608.086776,0.39079526109248397,0.5757447089910507,-0.4539736018002033,0.15605437755584717,0.17055997252464294,-0.01857897639274597,,,,,,
1764808608.087952,,,,,,,-0.012131869792938232,0.05132529139518738,0.043115973472595215,-0.49585792422294617,0.12951511144638062,-0.09889013320207596
1764808608.096828,0.6988342053040861,0.9938643225997685,-0.5218436439881101,0.21853239834308624,0.2441827952861786,-0.020462097600102425,,,,,,
1764808608.097982,,,,,,,-0.005865275859832764,0.08858716487884521,0.029828429222106934,-0.6574488282203674,0.1596413254737854,-0.15878483653068542
1764808608.106881,1.1573673701047897,1.0890601420760153,-0.6007459157893433,0.30769112706184387,0.276315301656723,-0.015451882034540176,,,,,,
1764808608.108012,,,,,,,0.009191691875457764,0.16076892614364624,0.011828958988189697,-0.7636285424232483,0.1293654441833496,-0.23214267194271088
1764808608.116933,1.6692907643094659,0.5817454107105732,-0.6456956125736236,0.3897010385990143,0.23748347163200378,0.03074810653924942,,,,,,
1764808608.118042,,,,,,,0.007385611534118652,0.2306511402130127,-0.013530850410461426,-0.7748569250106812,0.07101557403802872,-0.3358411192893982
1764808608.126986,2.1788892226979133,-0.15222937381863594,-0.5266530535638332,0.41676151752471924,0.15081948041915894,0.14762219786643982,,,,,,
1764808608.128072,,,,,,,-0.03052610158920288,0.2951659858226776,-0.029208660125732422,-0.6992862224578857,0.05525792017579079,-0.46735092997550964
1764808608.137038,2.5372689456149935,-0.5205009606748819,-0.5000713361084461,0.4240332543849945,0.06757625192403793,0.30686140060424805,,,,,,
1764808608.138102,,,,,,,-0.0786847472190857,0.3514423370361328,-0.03956937789916992,-0.5829732418060303,0.0906800925731659,-0.6268601417541504
1764808608.14709,2.6724586295664308,-0.3484533721864223,-0.7237643561601639,0.47605931758880615,0.009679850190877914,0.47805747389793396,,,,,,
1764808608.148132,,,,,,,-0.1149950623512268,0.41209876537323,-0.04895365238189697,-0.44899728894233704,0.13012178242206573,-0.8139157891273499
1764808608.157143,2.6931071575805543,0.0602361497759819,-1.01105686494112,0.5824824571609497,-0.010198516771197319,0.6488204002380371,,,,,,
1764808608.158162,,,,,,,-0.12726473808288574,0.4749770760536194,-0.044646501541137695,-0.3662102520465851,0.16886012256145477,-0.9944877028465271
1764808608.167195,2.6321289572656155,0.4827297406852245,-1.255195291650295,0.7154830098152161,0.0369938425719738,0.8259617686271667,,,,,,
1764808608.168192,,,,,,,-0.12073290348052979,0.5049042105674744,-0.014821765944361687,-0.3910463750362396,0.21108773350715637,-1.1735997200012207
1764808608.177248,2.469412091702223,0.7537684492796659,-1.4966495938420294,0.8453088998794556,0.17205898463726044,0.99374920129776,,,,,,
1764808608.178222,,,,,,,-0.10082447528839111,0.48457151651382446,0.03849899768829346,-0.5686842799186707,0.23910978436470032,-1.3643075227737427
1764808608.1873,2.3197446773260832,0.841507523009181,-1.6799848845422267,0.9834924340248108,0.36537638306617737,1.1389071941375732,,,,,,
1764808608.188253,,,,,,,-0.07476580142974854,0.4611796736717224,0.08055984973907471,-0.8241292238235474,0.25007933378219604,-1.5603303909301758
1764808608.197353,2.2858646195560692,0.7567641239643097,-1.7268763995766638,1.1143908500671387,0.5777251124382019,1.2629039287567139,,,,,,
1764808608.198283,,,,,,,-0.05648219585418701,0.47534841299057007,0.08998680114746094,-1.0195482969284058,0.25940412282943726,-1.7517814636230469
1764808608.207405,2.456528352470696,0.5199889194995164,-1.6460305924922227,1.2211908102035522,0.7682417035102844,1.384717345237732,,,,,,
1764808608.208313,,,,,,,-0.059824585914611816,0.5257054567337036,0.07358193397521973,-1.0391908884048462,0.29147791862487793,-1.9335228204727173
1764808608.217457,2.8083523701339956,0.15412205569744108,-1.4765081385672092,1.28421950340271,0.8953772783279419,1.5315003395080566,,,,,,
1764808608.218343,,,,,,,-0.08028489351272583,0.5935837030410767,0.030409447848796844,-0.8439745903015137,0.3780341148376465,-2.1006319522857666
1764808608.22751,3.241847832050919,-0.1305325057953596,-1.275488722616434,1.3030056953430176,0.9489241242408752,1.7010713815689087,,,,,,
1764808608.228373,,,,,,,-0.09881472587585449,0.6620299816131592,-0.02648497000336647,-0.4375045597553253,0.507412314414978,-2.236844778060913
1764808608.237562,3.6953158224165437,-0.22936054429411887,-1.1912865908414125,1.2954875230789185,0.9562646150588989,1.872057557106018,,,,,,
1764808608.238403,,,,,,,-0.0999460220336914,0.7036193609237671,-0.07079291343688965,0.07918897271156311,0.6391882300376892,-2.347548723220825
1764808608.247615,4.04848044103384,-0.08315759115815162,-1.1519815854132174,1.2891182899475098,0.9434843063354492,2.037409782409668,,,,,,
1764808608.248433,,,,,,,-0.08063328266143799,0.6967667937278748,-0.062458157539367676,0.5570271611213684,0.7427966594696045,-2.4405925273895264
1764808608.257667,4.179457767987251,0.27340543772578235,-1.2856295928806065,1.314361572265625,0.9277109503746033,2.1906092166900635,,,,,,
1764808608.258463,,,,,,,-0.03458219766616821,0.6439316272735596,-0.011562235653400421,0.9207430481910706,0.793807864189148,-2.50066876411438
1764808608.26772,3.982143636295199,0.5547188720971346,-1.4308219076693056,1.363070011138916,0.8980725407600403,2.3227615356445312,,,,,,
1764808608.268493,,,,,,,0.014821410179138184,0.5616806149482727,0.042743079364299774,1.1599684953689575,0.7917109131813049,-2.545271873474121
1764808608.277772,3.5484652190268036,0.6193044492542743,-1.5129127463787793,1.41664457321167,0.8725998997688293,2.4187228679656982,,,,,,
1764808608.278523,,,,,,,0.04566609859466553,0.48140835762023926,0.08446300774812698,1.2401255369186401,0.7892765402793884,-2.605059862136841
1764808608.287824,3.060865241956711,0.6556406680047512,-1.4735872826844454,1.4650782346725464,0.8562516570091248,2.4887189865112305,,,,,,
1764808608.288553,,,,,,,0.05433964729309082,0.42027127742767334,0.12001550942659378,1.1603386402130127,0.809861958026886,-2.7089197635650635
1764808608.297877,2.672943198212981,0.8108394130229949,-1.344603759896755,1.5275434255599976,0.842929482460022,2.5443549156188965,,,,,,
1764808608.298583,,,,,,,0.057576656341552734,0.3863338232040405,0.15328359603881836,0.9667496085166931,0.8447107672691345,-2.829745292663574
1764808608.307929,2.4373697707533837,1.0468377878963946,-1.360667590469122,1.6037821769714355,0.828312873840332,2.5953755378723145,,,,,,
1764808608.308614,,,,,,,0.07119113206863403,0.37866199016571045,0.17326200008392334,0.7400445938110352,0.8698760271072388,-2.94490647315979
1764808608.317982,2.37198924382627,1.249576282724738,-1.48501117849648,1.6769626140594482,0.8123506903648376,2.651122808456421,,,,,,
1764808608.318644,,,,,,,0.10094553232192993,0.37866729497909546,0.1707059144973755,0.5281489491462708,0.8793179988861084,-3.0640347003936768
1764808608.328034,2.4950655883967876,1.3249082948237656,-1.5010492901057004,1.7196457386016846,0.7813538908958435,2.727144241333008,,,,,,
1764808608.328674,,,,,,,0.130046546459198,0.38592636585235596,0.1655113697052002,0.36348700523376465,0.8983973860740662,-3.180279016494751
1764808608.338086,2.6345816111147404,1.3865730160981415,-1.511376622852683,1.750781536102295,0.7617679238319397,2.8211233615875244,,,,,,
1764808608.338704,,,,,,,0.15659838914871216,0.4012002944946289,0.16914701461791992,0.2386566698551178,0.9092345833778381,-3.2859110832214355
1764808608.348139,2.7402251748472453,1.5319114613592624,-1.6727483574174344,1.7851548194885254,0.7624730467796326,2.9154608249664307,,,,,,
1764808608.348734,,,,,,,0.17813527584075928,0.4243581295013428,0.17935705184936523,0.11898300051689148,0.9224585294723511,-3.3912150859832764
1764808608.358191,2.845284801211953,1.7832137883484362,-1.7737153076410292,1.821651577949524,0.7437068223953247,3.0059547424316406,,,,,,
1764808608.358764,,,,,,,0.19446015357971191,0.44371533393859863,0.19530367851257324,0.018455784767866135,0.9590133428573608,-3.4993362426757812
1764808608.368244,2.97419935041666,2.0758587640732524,-1.7534284525461494,1.8669430017471313,0.6760087609291077,3.1124603748321533,,,,,,
1764808608.368794,,,,,,,0.21276113390922546,0.4626210927963257,0.20523928105831146,-0.08765999227762222,0.998900830745697,-3.6038031578063965
1764808608.378296,3.0954484795600172,2.2736861059844493,-1.7672123554877937,1.918434977531433,0.57826167345047,3.229060649871826,,,,,,
1764808608.378824,,,,,,,0.23689574003219604,0.46912682056427,0.20683932304382324,-0.23376117646694183,1.0115883350372314,-3.7176055908203125
1764808608.388349,3.0931635834932325,2.324634202933311,-1.756273612844199,1.9607951641082764,0.4675186276435852,3.3332786560058594,,,,,,
1764808608.388854,,,,,,,0.260415643453598,0.43645358085632324,0.21858656406402588,-0.437370240688324,1.0205472707748413,-3.8403284549713135
1764808608.398401,3.016054040327668,2.363496140769124,-1.837428193616867,2.001157760620117,0.3408309817314148,3.390357255935669,,,,,,
1764808608.398884,,,,,,,0.2739899158477783,0.3964797854423523,0.2498706728219986,-0.7629386782646179,1.0564568042755127,-3.960754871368408
1764808608.408453,3.087428254711628,2.6528584415614604,-2.1239871274262665,2.080061435699463,0.2097105085849762,3.414111852645874,,,,,,
1764808608.408914,,,,,,,0.2868292033672333,0.39937663078308105,0.3077481985092163,-1.1621899604797363,1.1272650957107544,-4.073845863342285
1764808608.418506,3.3762866976350545,3.219669902512431,-2.4480285274118185,2.2108283042907715,0.05603678897023201,3.460099458694458,,,,,,
1764808608.418945,,,,,,,0.30491918325424194,0.42425328493118286,0.37579891085624695,-1.5814908742904663,1.224494457244873,-4.198885917663574
1764808608.428558,3.763057817777991,3.844304899139702,-2.6669237917929887,2.406177520751953,-0.1331765055656433,3.583001136779785,,,,,,
1764808608.428975,,,,,,,0.32226043939590454,0.4469173550605774,0.44730091094970703,-1.9765710830688477,1.343514084815979,-4.309261322021484
1764808608.438611,3.970321681076288,4.26690078137964,-2.678486219292879,2.641197443008423,-0.327384352684021,3.7850823402404785,,,,,,
1764808608.439005,,,,,,,0.3331860303878784,0.47375810146331787,0.4739355742931366,-2.295944929122925,1.4912526607513428,-4.407690048217773
1764808608.448663,3.7557320049345493,4.402097771854699,-2.523461077275872,2.832977056503296,-0.4432578980922699,4.004934310913086,,,,,,
1764808608.449035,,,,,,,0.32875189185142517,0.5241824388504028,0.4726489782333374,-2.450552225112915,1.73495352268219,-4.497643947601318
1764808608.458716,3.2980116178214547,4.2856414299458265,-2.226157315959781,2.955310821533203,-0.44922658801078796,4.224339962005615,,,,,,
1764808608.459065,,,,,,,0.3293135166168213,0.5946535468101501,0.4438880681991577,-2.3291993141174316,2.0284817218780518,-4.514880657196045
1764808608.468768,2.657473241880536,4.113327007214725,-1.9295269238606094,3.01377010345459,-0.3547798693180084,4.406377792358398,,,,,,
1764808608.469095,,,,,,,0.36577045917510986,0.6410399675369263,0.3606089651584625,-1.9332789182662964,2.248814582824707,-4.5358476638793945
1764808608.47882,1.8185475520581007,3.8946561992391944,-1.5744617323189973,3.0041613578796387,-0.18230795860290527,4.509644985198975,,,,,,
1764808608.479125,,,,,,,0.42359018325805664,0.6418920159339905,0.2968413531780243,-1.479749321937561,2.4163529872894287,-4.5623884201049805
1764808608.488873,1.0182312866151333,3.6658477358698844,-1.409845462875068,2.9570629596710205,0.005845619365572929,4.532443046569824,,,,,,
1764808608.489155,,,,,,,0.48418083786964417,0.6154456734657288,0.28690576553344727,-1.026955485343933,2.538729667663574,-4.58740234375
1764808608.498925,0.5252659831196069,3.584401624804735,-1.5719003573983907,2.9359042644500732,0.1811702996492386,4.507007598876953,,,,,,
1764808608.499185,,,,,,,0.5295455455780029,0.5943377017974854,0.34025049209594727,-0.6767523884773254,2.6780946254730225,-4.626901149749756
1764808608.508978,0.5010176770478487,3.9097956084430217,-1.9340002698823808,2.9681313037872314,0.3564152717590332,4.479092597961426,,,,,,
1764808608.509215,,,,,,,0.5657943487167358,0.5739364624023438,0.3906533420085907,-0.5104531645774841,2.7911086082458496,-4.707095623016357
1764808608.51903,0.9296990166813135,4.627992393603921,-2.2600749292612075,3.0826945304870605,0.4798503816127777,4.497237205505371,,,,,,
1764808608.519245,,,,,,,0.6150883436203003,0.49211227893829346,0.4800163507461548,-0.5703598856925964,2.9145405292510986,-4.74937629699707
1764808608.529082,1.6488696153104305,5.238862776511907,-2.250975092482567,3.2194511890411377,0.5087822675704956,4.608964443206787,,,,,,
1764808608.529275,,,,,,,0.6615145206451416,0.3861274719238281,0.530432939529419,-0.6992896199226379,3.068314790725708,-4.693299770355225
1764808608.539135,2.1403613391220566,5.407354718345403,-1.8358900242641567,3.287400245666504,0.44331294298171997,4.754890441894531,,,,,,
1764808608.539306,,,,,,,0.6862354874610901,0.3377593159675598,0.5001356601715088,-0.7800168395042419,3.2156565189361572,-4.65583610534668
1764808608.549187,2.05506848950088,5.101503055045009,-1.3249065412580967,3.2774174213409424,0.3209851384162903,4.847229957580566,,,,,,
1764808608.549336,,,,,,,0.6926921606063843,0.3403708338737488,0.4208192527294159,-0.7394430041313171,3.350374221801758,-4.607350826263428
1764808608.55924,1.7115303618848323,4.646962467011809,-0.8737667015790939,3.2286810874938965,0.180817648768425,4.86296272277832,,,,,,
1764808608.559366,,,,,,,0.7116080522537231,0.3309370279312134,0.35535192489624023,-0.6420662999153137,3.439223051071167,-4.538327693939209
1764808608.569292,1.183786590474844,4.28407754162997,-0.5767834043890238,3.1637022495269775,0.041932739317417145,4.811990261077881,,,,,,
1764808608.569396,,,,,,,0.7348970174789429,0.2975732684135437,0.2965953052043915,-0.5282443761825562,3.47639799118042,-4.470700263977051
1764808608.579345,0.48247079748809335,4.10042164067328,-0.5005459678828716,3.104877471923828,-0.05547237768769264,4.71481466293335,,,,,,
1764808608.579426,,,,,,,0.7577526569366455,0.23694497346878052,0.28904348611831665,-0.4869746267795563,3.516922950744629,-4.4083051681518555
1764808608.589397,-0.06213175426423549,4.328160428984463,-0.8034994255237281,3.0863263607025146,-0.054563652724027634,4.621991157531738,,,,,,
1764808608.589456,,,,,,,0.7668956518173218,0.20579785108566284,0.3427344262599945,-0.4648994207382202,3.6166272163391113,-4.326145648956299
1764808608.599449,-0.41899639644324776,4.798760755936801,-1.323812900802493,3.098755121231079,0.064258873462677,4.559022426605225,,,,,,
1764808608.599486,,,,,,,0.7737247943878174,0.18493962287902832,0.36591637134552,-0.35217809677124023,3.669133424758911,-4.203121662139893
1764808608.609502,-0.7976572753667831,4.9709799015998835,-1.573903367783874,3.1029422283172607,0.23597095906734467,4.509575843811035,,,,,,
1764808608.609516,,,,,,,0.7683932781219482,0.13246268033981323,0.3452177047729492,-0.23221787810325623,3.6980366706848145,-4.117892265319824
1764808608.619546,,,,,,,0.7534331679344177,0.12087023258209229,0.39113324880599976,-0.26361599564552307,3.8110852241516113,-4.069631099700928
1764808608.619554,-1.1514987703323363,4.972513687038421,-1.5525040214024484,3.1077840328216553,0.37569770216941833,4.452930927276611,,,,,,
1764808608.629576,,,,,,,0.7754858732223511,0.16159164905548096,0.42153358459472656,-0.15964007377624512,3.9183847904205322,-3.9294040203094482
1764808608.629607,-1.129928743559122,5.291362194555997,-1.4867552456848323,3.113346576690674,0.4818859398365021,4.420131683349609,,,,,,
1764808608.639606,,,,,,,0.8399962186813354,0.11318016052246094,0.32626664638519287,0.03234987333416939,3.8527991771698,-3.8161914348602295
1764808608.639659,-1.0071382301926612,5.611744487512111,-1.1057523336797952,3.0708584785461426,0.5499869585037231,4.392498970031738,,,,,,
1764808608.649637,,,,,,,0.8805413842201233,0.06113743782043457,0.2605541944503784,0.14857102930545807,3.792046070098877,-3.7550153732299805
1764808608.649712,-1.2132780578970908,5.490144060713052,-0.6476053917177022,2.998246908187866,0.5479520559310913,4.318955898284912,,,,,,
1764808608.659667,,,,,,,0.8704958558082581,0.03753209114074707,0.24857103824615479,0.24120773375034332,3.7454936504364014,-3.6491470336914062
1764808608.659764,-1.4552087454289198,5.103696765697002,-0.48956689322888847,2.932492256164551,0.48302921652793884,4.2006001472473145,,,,,,
1764808608.669697,,,,,,,0.8465734124183655,-0.007518112659454346,0.24374771118164062,0.26313406229019165,3.6738641262054443,-3.575399398803711
1764808608.669816,-1.5417302600622176,4.849715574887394,-0.6162094058483839,2.890927314758301,0.4328325092792511,4.065417766571045,,,,,,
1764808608.679727,,,,,,,0.8241057991981506,-0.03500908613204956,0.25727570056915283,0.21197442710399628,3.669997453689575,-3.4864211082458496
1764808608.679869,-1.493324833333492,4.961804076975584,-0.7474883460968732,2.8479912281036377,0.4062855839729309,3.9401137828826904,,,,,,
1764808608.689757,,,,,,,0.8296486139297485,-0.06602388620376587,0.2684696316719055,0.1638180911540985,3.6074020862579346,-3.365233898162842
1764808608.689921,-1.3869313280165194,5.26556432095468,-0.7495002704411745,2.800905466079712,0.37900474667549133,3.8340978622436523,,,,,,
1764808608.699787,,,,,,,0.849550187587738,-0.061805009841918945,0.3063596487045288,0.09915987402200699,3.5938477516174316,-3.2583203315734863
1764808608.699974,-1.244900692129135,5.605020147693157,-0.9595710078537464,2.7559566497802734,0.3553985059261322,3.739560127258301,,,,,,
1764808608.709817,,,,,,,0.8553743362426758,-0.01615840196609497,0.2761767506599426,0.17157228291034698,3.5032763481140137,-3.1385138034820557
1764808608.710026,-1.170466505652666,5.880984037730097,-1.0571966848254204,2.6959104537963867,0.3360845148563385,3.656357526779175,,,,,,
1764808608.719847,,,,,,,0.8472009897232056,-0.038498878479003906,0.20689773559570312,0.23975272476673126,3.361832857131958,-3.073120594024658
1764808608.720078,-1.3381804488509892,5.572512547320128,-0.8768319343686103,2.5887699127197266,0.31140899658203125,3.534818649291992,,,,,,
1764808608.729877,,,,,,,0.813136100769043,-0.06700006127357483,0.19548681378364563,0.22199982404708862,3.2700600624084473,-3.0022475719451904
1764808608.730131,-1.6587299150675534,4.903674544090032,-0.6941396177470683,2.49296498298645,0.2267824411392212,3.3753278255462646,,,,,,
1764808608.739907,,,,,,,0.7978406548500061,-0.08747401833534241,0.1614551544189453,0.15726280212402344,3.1135923862457275,-2.922276496887207
1764808608.740183,-1.7750357425898313,4.630928447055816,-0.520514477743581,2.4154088497161865,0.0790100172162056,3.1873393058776855,,,,,,
1764808608.749937,,,,,,,0.7905305027961731,-0.11580386757850647,0.1439698338508606,0.15013538300991058,2.995190382003784,-2.805410861968994
1764808608.750236,-1.7674691067278383,4.404828365862369,-0.3096856154400855,2.3510544300079346,-0.06670638173818588,2.994997262954712,,,,,,
1764808608.759968,,,,,,,0.7432484030723572,-0.13553789258003235,0.0998258888721466,0.17017410695552826,2.9066665172576904,-2.676814079284668
1764808608.760288,-1.7829069143563507,4.231112551900744,-0.05367065378054976,2.2688827514648438,-0.12318723648786545,2.829139232635498,,,,,,
1764808608.769998,,,,,,,0.6995742917060852,-0.1520240306854248,0.04825758934020996,0.18220598995685577,2.791027545928955,-2.545928955078125
1764808608.77034,-2.0282345508500934,4.073926432457566,0.16525588252171874,2.1584692001342773,-0.0717925876379013,2.7001805305480957,,,,,,
1764808608.780028,,,,,,,0.6768525242805481,-0.1732690930366516,-0.0017504692077636719,0.18607008457183838,2.694317102432251,-2.3913726806640625
1764808608.780393,-2.423026772624254,3.7827977065145966,0.3033409956537187,2.0310118198394775,0.03625265881419182,2.584785223007202,,,,,,
1764808608.790059,,,,,,,0.6547123789787292,-0.17579299211502075,-0.0586455762386322,0.26039305329322815,2.578385353088379,-2.2316036224365234
1764808608.790445,-2.827927715958655,3.530435641339421,0.7612345473766327,1.8855605125427246,0.10719911009073257,2.4351329803466797,,,,,,
1764808608.800088,,,,,,,0.6482517123222351,-0.16772133111953735,-0.09819668531417847,0.4046769142150879,2.4185426235198975,-2.0882461071014404
1764808608.800498,-2.998030600120127,3.419145011630654,1.0136965657949446,1.7483807802200317,0.18886974453926086,2.2575950622558594,,,,,,
1764808608.810118,,,,,,,0.6440147757530212,-0.15725666284561157,-0.14421314001083374,0.5255839228630066,2.2110702991485596,-1.9931159019470215
1764808608.81055,-2.646924375337362,3.6041099493592976,0.9224398393332958,1.6099328994750977,0.273406982421875,2.094266176223755,,,,,,
1764808608.820148,,,,,,,0.6358339190483093,-0.19930142164230347,-0.197982519865036,0.5502503514289856,1.979519248008728,-1.881278395652771
1764808608.820603,-2.5373878958195446,3.482717612352967,1.0403557324007153,1.4418365955352783,0.27580249309539795,1.9269208908081055,,,,,,
1764808608.830178,,,,,,,0.6204289793968201,-0.27056777477264404,-0.2030911147594452,0.4936104714870453,1.7738838195800781,-1.6835945844650269
1764808608.830655,-2.358083175809681,2.932649196410179,1.2307060164295136,1.2622078657150269,0.2116793692111969,1.7470148801803589,,,,,,
1764808608.840208,,,,,,,0.5787578225135803,-0.2945247292518616,-0.19180592894554138,0.4848657548427582,1.5816571712493896,-1.49825119972229
1764808608.840707,-2.010776927831769,2.747465647494793,1.2115966806814074,1.0973105430603027,0.1345725953578949,1.5636951923370361,,,,,,
1764808608.850238,,,,,,,0.5364362001419067,-0.29195040464401245,-0.20133137702941895,0.506505012512207,1.3786287307739258,-1.3020890951156616
1764808608.85076,-1.9486019189476966,2.8991116684675213,1.214006664432585,0.9377204179763794,0.10624746978282928,1.3701595067977905,,,,,,
1764808608.860268,,,,,,,0.5322679281234741,-0.2915438413619995,-0.22446301579475403,0.5304676294326782,1.163663625717163,-1.0798110961914062
1764808608.860812,-2.090376826508343,2.9745342814594506,1.231786066751182,0.7853761315345764,0.11353760957717896,1.1781599521636963,,,,,,
1764808608.870298,,,,,,,0.5392170548439026,-0.31734317541122437,-0.24944359064102173,0.5143184661865234,0.9290855526924133,-0.8408809900283813
1764808608.870865,-2.3034555135652424,2.9091590152293443,1.4468237789213656,0.6369951367378235,0.12712405622005463,0.9866483807563782,,,,,,
1764808608.880329,,,,,,,0.5410463213920593,-0.35693490505218506,-0.29099878668785095,0.47569775581359863,0.6942866444587708,-0.5906193256378174
1764808608.880917,-2.5676643761396405,2.837742715269327,1.7337927548363803,0.4808253049850464,0.13651543855667114,0.7781638503074646,,,,,,
1764808608.890359,,,,,,,0.5394852161407471,-0.3885385990142822,-0.3297376036643982,0.41069239377975464,0.45567137002944946,-0.3502999544143677
1764808608.890969,-2.7682743345066902,2.7701971192628143,1.9779753129482267,0.319679319858551,0.11810604482889175,0.5350131392478943,,,,,,
1764808608.900389,,,,,,,0.5478711128234863,-0.39918047189712524,-0.3534778654575348,0.329135537147522,0.22155368328094482,-0.11762241274118423
1764808608.901022,-2.752390536676347,2.751953606563806,2.093461056259274,0.16090914607048035,0.0660252720117569,0.2685379981994629,,,,,,
1764808608.910419,,,,,,,0.5637975335121155,-0.41356921195983887,-0.35950320959091187,0.25610315799713135,-0.006574288941919804,0.13315148651599884
1764808608.911074,-2.614428173141181,2.858002828487754,2.181340122981369,-0.010821528732776642,-0.001553148846141994,0.00018358672969043255,,,,,,
1764808608.920449,,,,,,,0.5814676880836487,-0.4135890007019043,-0.349122017621994,0.2046358287334442,-0.2293011099100113,0.38805535435676575
1764808608.921127,-2.4663375065624713,3.0122096398591993,2.157946387912333,-0.17517131567001343,-0.05108128488063812,-0.2572684586048126,,,,,,
1764808608.930479,,,,,,,0.5929044485092163,-0.3971838653087616,-0.34103381633758545,0.19167210161685944,-0.4387938678264618,0.6491740345954895
1764808608.931179,-2.4175679226964712,3.2011271146059035,2.154025999598205,-0.3402006924152374,-0.0675354078412056,-0.49714770913124084,,,,,,
1764808608.94051,,,,,,,0.6040619015693665,-0.3670889437198639,-0.32887643575668335,0.2381361871957779,-0.6460940837860107,0.9011269807815552
1764808608.941231,-2.480226331183314,3.3590146603167055,2.0891823560267686,-0.4939705431461334,-0.06782941520214081,-0.7253659963607788,,,,,,
1764808608.950539,,,,,,,0.6043434739112854,-0.34386950731277466,-0.3007689416408539,0.34084898233413696,-0.8599408268928528,1.1317154169082642
1764808608.951284,-2.558495858038962,3.3160318431586027,1.8424296551659702,-0.6328322291374207,-0.06272634118795395,-0.9547181129455566,,,,,,
1764808608.960569,,,,,,,0.584072470664978,-0.3267616629600525,-0.27140533924102783,0.4752894341945648,-1.0343600511550903,1.3670936822891235
1764808608.961336,-2.6427570265248415,3.251324685448408,1.6214882719099522,-0.7688523530960083,-0.05227477103471756,-1.20191490650177,,,,,,
1764808608.970599,,,,,,,0.5742496252059937,-0.3115217089653015,-0.2399241328239441,0.6034311652183533,-1.2014609575271606,1.5910580158233643
1764808608.971389,-2.700461319735646,3.26896380251348,1.3876567196816205,-0.8930867314338684,-0.030743272975087166,-1.455501675605774,,,,,,
1764808608.980629,,,,,,,0.5745441913604736,-0.3077995479106903,-0.20203536748886108,0.6763265132904053,-1.3737525939941406,1.7959908246994019
1764808608.981441,-2.6402073420420287,3.20370719422698,1.0826558279916643,-0.9975777268409729,-0.014121686108410358,-1.7114288806915283,,,,,,
1764808608.990659,,,,,,,0.5676587820053101,-0.320740282535553,-0.16526556015014648,0.6896295547485352,-1.5068680047988892,2.0265517234802246
1764808608.991494,-2.54178905338794,3.063959116318822,0.9655965517535805,-1.0949647426605225,-0.009534135460853577,-1.9657459259033203,,,,,,
1764808609.00069,,,,,,,0.5591995716094971,-0.33243536949157715,-0.1263507604598999,0.6870622634887695,-1.601027011871338,2.273418664932251
1764808609.001546,-2.4801032893255353,2.9594150382608175,0.9200190419271588,-1.1985046863555908,-0.012826069258153439,-2.215419054031372,,,,,,
1764808609.01072,,,,,,,0.5536507368087769,-0.32614171504974365,-0.10261017084121704,0.6940099596977234,-1.6847703456878662,2.4985744953155518
1764808609.011598,-2.4350775681629777,2.8866870711803436,0.8709023981891572,-1.3005568981170654,-0.004868116229772568,-2.450526475906372,,,,,,
1764808609.02075,,,,,,,0.5544262528419495,-0.3087094724178314,-0.09312063455581665,0.6528381705284119,-1.7785111665725708,2.711750030517578
1764808609.021651,-2.4735446614623067,2.882812860095501,0.8471011052325368,-1.4023876190185547,0.01828993298113346,-2.6749351024627686,,,,,,
1764808609.03078,,,,,,,0.5718291997909546,-0.29820892214775085,-0.07631790637969971,0.5974705219268799,-1.8453449010849,2.916377067565918
1764808609.031703,-2.5827146457552907,2.979237344583869,0.8517147365078329,-1.5145294666290283,0.034043971449136734,-2.8917124271392822,,,,,,
1764808609.04081,,,,,,,0.5907049179077148,-0.3029707968235016,-0.05751374363899231,0.5438433885574341,-1.8755041360855103,3.1397922039031982
1764808609.041756,-2.66281869456172,3.0845284416168925,0.884157308820635,-1.623119592666626,0.04682688042521477,-3.097712278366089,,,,,,
1764808609.05084,,,,,,,0.6132029891014099,-0.2916524410247803,-0.05291512608528137,0.487478107213974,-1.878169059753418,3.372612476348877
1764808609.051808,-2.7570149816066025,3.3075030842661857,0.9484791204750538,-1.7427815198898315,0.08156099915504456,-3.290175437927246,,,,,,
1764808609.060869,,,,,,,0.6490687727928162,-0.254713773727417,-0.04959923028945923,0.5108720064163208,-1.871965765953064,3.5936439037323
1764808609.06186,-2.838579750615358,3.6782086202710866,1.1005892518281937,-1.871604323387146,0.1484374850988388,-3.4597856998443604,,,,,,
1764808609.070899,,,,,,,0.689423143863678,-0.21762073040008545,-0.059789061546325684,0.6609795093536377,-1.8947625160217285,3.817002773284912
1764808609.071913,-2.8523820659965273,4.081108452916145,1.1377120909117162,-1.9868041276931763,0.24993428587913513,-3.608189344406128,,,,,,
1764808609.080929,,,,,,,0.7200391292572021,-0.17646223306655884,-0.07233729958534241,0.9492907524108887,-1.926937460899353,4.018903732299805
1764808609.081965,-2.8843273563116787,4.335180244618654,1.0798550913572311,-2.0846943855285645,0.37079668045043945,-3.7411296367645264,,,,,,
1764808609.090959,,,,,,,0.7256891131401062,-0.13111066818237305,-0.0470907986164093,1.3379319906234741,-1.9318472146987915,4.2061848640441895
1764808609.092018,-2.931744941046834,4.403199887877703,0.9612053310573101,-2.166750431060791,0.4952731728553772,-3.878890037536621,,,,,,
1764808609.100989,,,,,,,0.7072016596794128,-0.10579365491867065,-0.0031946897506713867,1.6758919954299927,-1.9677480459213257,4.3729143142700195
1764808609.10207,-3.0134271989554167,4.376886465969681,0.5751577759485691,-2.201754331588745,0.6025838851928711,-4.030073642730713,,,,,,
1764808609.11102,,,,,,,0.66752028465271,-0.11575162410736084,0.07087936997413635,1.8107563257217407,-1.9759907722473145,4.475623607635498
1764808609.112122,-3.0869898632943626,4.1949546123266215,0.05857267354317009,-2.2095086574554443,0.677636981010437,-4.202725887298584,,,,,,
1764808609.12105,,,,,,,0.6172385215759277,-0.12961405515670776,0.1709001064300537,1.662609338760376,-1.8524725437164307,4.558344841003418
1764808609.122175,-3.010080811136961,4.14447179480195,-0.301377075169608,-2.1931893825531006,0.6931576132774353,-4.3852643966674805,,,,,,
1764808609.13108,,,,,,,0.5917969346046448,-0.1280198097229004,0.24288517236709595,1.467003583908081,-1.6453003883361816,4.685553550720215
1764808609.132227,-2.670657133102417,4.3948874020844695,-0.5570937114696949,-2.1607251167297363,0.6855207681655884,-4.549746990203857,,,,,,
1764808609.14111,,,,,,,0.6124237775802612,-0.12350088357925415,0.25648754835128784,1.513465166091919,-1.4840450286865234,4.872119903564453
1764808609.14228,-2.0997814914524553,4.820030046197772,-0.6786592130858451,-2.138669013977051,0.7041724920272827,-4.653825759887695,,,,,,
1764808609.15114,,,,,,,0.6554703712463379,-0.12003785371780396,0.2163705974817276,1.8906036615371704,-1.336146354675293,5.0936689376831055
1764808609.152332,-1.4825374818593262,5.237120316758752,-0.6200713419735431,-2.15771484375,0.7928283214569092,-4.693020343780518,,,,,,
1764808609.16117,,,,,,,0.6882906556129456,-0.10496729612350464,0.17632734775543213,2.471510648727417,-1.158018946647644,5.286799907684326
1764808609.162385,-1.259500295367837,5.469063278761506,-0.3837772355565801,-2.2317984104156494,0.9441022872924805,-4.691270351409912,,,,,,
1764808609.1712,,,,,,,0.7262047529220581,-0.06543087959289551,0.1503615379333496,3.1420364379882812,-0.9283361434936523,5.426971435546875
1764808609.172437,-1.6038152525752782,5.675256882479786,-0.13676993888020514,-2.3485612869262695,1.1266316175460815,-4.65753698348999,,,,,,
1764808609.18123,,,,,,,0.7811954021453857,-0.010692834854125977,0.15174415707588196,3.7941994667053223,-0.7041587233543396,5.541713714599609
1764808609.182489,-2.4263603009611368,5.678404532855748,0.04749006544947624,-2.4544968605041504,1.2417470216751099,-4.706803321838379,,,,,,
1764808609.19126,,,,,,,0.853991687297821,0.06774985790252686,0.16332769393920898,4.395484924316406,-0.5648876428604126,5.654796600341797
1764808609.192542,-3.2776609037101267,5.615584796327353,0.0966612158536911,-2.506646156311035,1.1928038597106934,-4.857668876647949,,,,,,
1764808609.20129,,,,,,,0.9012942910194397,0.1453579068183899,0.18395480513572693,4.961935043334961,-0.5593663454055786,5.742448806762695
1764808609.202594,-3.6681840698629617,5.488646515631675,-0.08738255190942436,-2.534825563430786,1.0756317377090454,-5.051871299743652,,,,,,
1764808609.21132,,,,,,,0.8629353642463684,0.22731679677963257,0.21966931223869324,5.337281227111816,-0.4295705556869507,5.818994045257568
1764808609.212647,-3.4354198546051977,5.409944150316715,-0.4319312813401222,-2.584460735321045,1.031591534614563,-5.248145580291748,,,,,,
1764808609.22135,,,,,,,0.7718384265899658,0.28729504346847534,0.2891053259372711,5.407425880432129,-0.049754250794649124,5.910748481750488
1764808609.222699,-2.775507500630617,5.535289608862996,-0.8351941020786762,-2.6622278690338135,1.094578742980957,-5.4190521240234375,,,,,,
1764808609.231381,,,,,,,0.6982064247131348,0.27472370862960815,0.39615729451179504,5.027603626251221,0.4689632058143616,5.9430036544799805
1764808609.232751,-1.7813228600353002,6.062687927836179,-1.2037597034454346,-2.7375898361206055,1.2371723651885986,-5.521999359130859,,,,,,
1764808609.241411,,,,,,,0.6745572090148926,0.17514461278915405,0.5017188787460327,4.193120002746582,0.9674201607704163,5.970000267028809
1764808609.242804,-0.6355687708348036,6.981822880405187,-1.6233002897679805,-2.7273428440093994,1.3975391387939453,-5.520984172821045,,,,,,
1764808609.251441,,,,,,,0.7116833329200745,0.040601491928100586,0.5551091432571411,3.1271588802337646,1.2793716192245483,6.024658679962158
1764808609.252856,0.34900983702540395,8.007399853608012,-2.023470989710092,-2.586529016494751,1.4474799633026123,-5.438782215118408,,,,,,
1764808609.261471,,,,,,,0.782986581325531,-0.045832693576812744,0.5337596535682678,1.7898956537246704,1.3577532768249512,5.983476161956787
1764808609.262909,0.8858534452140331,8.629876503157615,-1.9482348392009734,-2.3546717166900635,1.2457737922668457,-5.360135078430176,,,,,,
1764808609.271501,,,,,,,0.8448597192764282,-0.04826855659484863,0.5041552782058716,0.2711572051048279,1.3073641061782837,5.768618583679199
1764808609.272961,1.1356593961656094,8.458537355199455,-1.7074387086570262,-2.055685520172119,0.7822535634040833,-5.375556468963623,,,,,,
1764808609.281531,,,,,,,0.8530716896057129,0.0002986788749694824,0.4974327087402344,-0.9466912150382996,1.2906053066253662,5.625424385070801
1764808609.283013,1.532874753433466,7.542411521318554,-1.6740987491130828,-1.7673335075378418,0.1876985877752304,-5.500471591949463,,,,,,
1764808609.291561,,,,,,,0.8233028054237366,0.09525632858276367,0.4561424255371094,-1.5903865098953247,1.2729374170303345,5.661026477813721
1764808609.293066,2.2569863155961034,6.463468284109235,-1.518801950547844,-1.5814878940582275,-0.37809401750564575,-5.6586737632751465,,,,,,
1764808609.301591,,,,,,,0.8041045069694519,0.23353087902069092,0.39475446939468384,-1.700688362121582,1.249219298362732,5.736056327819824
1764808609.303118,3.0609780546814203,5.684364902564883,-1.267409461057186,-1.514351487159729,-0.7866871356964111,-5.73699426651001,,,,,,
1764808609.311621,,,,,,,0.7986429929733276,0.3560687303543091,0.321336030960083,-1.437168836593628,1.275890588760376,5.743719577789307
1764808609.313171,3.4575656354397535,5.095184373417497,-0.9431951156575232,-1.5633816719055176,-1.030328631401062,-5.709640026092529,,,,,,
1764808609.321651,,,,,,,0.8129262328147888,0.443023681640625,0.21157044172286987,-1.1136548519134521,1.3676642179489136,5.770480632781982
1764808609.323223,3.1948972803056237,4.709892678177356,-0.5657540973851457,-1.6967967748641968,-1.1449164152145386,-5.61652135848999,,,,,,
1764808609.331681,,,,,,,0.8596522808074951,0.49446529150009155,0.10793089866638184,-0.6865383386611938,1.4187569618225098,5.878507614135742
1764808609.333276,2.419166590064764,4.554221639472246,-0.3840004863858223,-1.8639870882034302,-1.1657758951187134,-5.515092372894287,,,,,,
1764808609.341711,,,,,,,0.908699631690979,0.49677354097366333,0.03338432312011719,-0.22930161654949188,1.4296207427978516,5.966012001037598
1764808609.343328,1.4889876809120177,4.629344392734766,-0.1935783792298287,-2.0470259189605713,-1.11746346950531,-5.427160739898682,,,,,,
1764808609.351742,,,,,,,0.9217836856842041,0.5197505950927734,0.006096363067626953,0.05679911747574806,1.4599032402038574,6.007905006408691
1764808609.35338,0.8133984498560428,4.9984857481628655,-0.14579028068184852,-2.2240936756134033,-0.9882804751396179,-5.358316421508789,,,,,,
1764808609.361772,,,,,,,0.9139746427536011,0.5293533205986023,0.017057955265045166,0.1462617665529251,1.5061794519424438,5.988269329071045
1764808609.363433,0.4984942960500717,5.535400668022036,-0.2936123594522476,-2.368035316467285,-0.8241407871246338,-5.307981491088867,,,,,,
1764808609.371802,,,,,,,0.8952786922454834,0.49586641788482666,0.0701325535774231,-0.02884160540997982,1.5860090255737305,5.898223400115967
1764808609.373485,0.6411959630668163,6.243831261450052,-0.5969044013977051,-2.4349558353424072,-0.6632570624351501,-5.263887405395508,,,,,,
1764808609.381832,,,,,,,0.8864121437072754,0.45232343673706055,0.1479489803314209,-0.26063817739486694,1.693333625793457,5.804521083831787
1764808609.383537,1.077294300958514,6.874027107074856,-0.993648560957238,-2.4067511558532715,-0.5792950987815857,-5.222403049468994,,,,,,
1764808609.391862,,,,,,,0.8923393487930298,0.4345393776893616,0.2107110321521759,-0.4481319189071655,1.7615385055541992,5.754868507385254
1764808609.39359,1.4777309583604334,7.164314121496677,-1.2334756272733212,-2.309976100921631,-0.630555272102356,-5.171938896179199,,,,,,
1764808609.401892,,,,,,,0.9040625095367432,0.4685177803039551,0.25645050406455994,-0.45788827538490295,1.8068188428878784,5.703106880187988
1764808609.403642,1.729591503754258,7.1325845197588205,-1.278728142929077,-2.1869359016418457,-0.7833933234214783,-5.135168075561523,,,,,,
1764808609.411922,,,,,,,0.9088640213012695,0.5062993764877319,0.2644782066345215,-0.3737108111381531,1.8405022621154785,5.657608985900879
1764808609.413695,1.8756003956228493,6.897077727794647,-1.2257038972932845,-2.0939059257507324,-0.9554980993270874,-5.1092071533203125,,,,,,
1764808609.421952,,,,,,,0.906334400177002,0.5235398411750793,0.23665398359298706,0.050105981528759,1.9475579261779785,5.67343807220459
1764808609.423747,1.889010496816039,6.54208647827208,-1.1941724484760314,-2.050508975982666,-1.094332218170166,-5.093337535858154,,,,,,
1764808609.431982,,,,,,,0.8983196020126343,0.5377600193023682,0.1736956536769867,0.5060316920280457,2.023047685623169,5.70318078994751
1764808609.4338,1.8174720317810773,6.215404208388924,-1.094039172597602,-2.076664447784424,-1.2109079360961914,-5.06864595413208,,,,,,
1764808609.442012,,,,,,,0.9091886878013611,0.5901883840560913,0.11648231744766235,0.8954414129257202,2.0725257396698,5.728365421295166
1764808609.443852,1.695834780102968,6.049246846982836,-0.7646949169635773,-2.168292760848999,-1.3208017349243164,-5.033576011657715,,,,,,
1764808609.452042,,,,,,,0.9563359022140503,0.5757600665092468,0.05859142541885376,0.9464787840843201,2.0723109245300293,5.722876071929932
1764808609.453904,1.6010416962087153,6.084500531193614,-0.4149252014815807,-2.2925710678100586,-1.4319230318069458,-4.981790542602539,,,,,,
1764808609.462072,,,,,,,1.0093779563903809,0.4749217629432678,0.05067092180252075,0.639011561870575,2.007242441177368,5.649868011474609
1764808609.463957,1.4531220022827387,6.172912974140048,-0.2657072844386101,-2.389962673187256,-1.5500127077102661,-4.919875621795654,,,,,,
1764808609.472103,,,,,,,1.0175567865371704,0.3438127040863037,0.10428035259246826,0.1203407421708107,2.017385244369507,5.541501045227051
1764808609.474009,1.3041174357295036,6.274140474995971,-0.13957111390605567,-2.439509391784668,-1.7071104049682617,-4.837021350860596,,,,,,
1764808609.482133,,,,,,,0.9792108535766602,0.26179370284080505,0.16942641139030457,-0.5035163164138794,2.1092662811279297,5.423018455505371
1764808609.484062,1.1822913834810256,6.561306142526865,0.16303703742846845,-2.443955898284912,-1.9381332397460938,-4.7626237869262695,,,,,,
1764808609.492163,,,,,,,0.9568049907684326,0.22948616743087769,0.2230273187160492,-0.9975244402885437,2.1807632446289062,5.2625203132629395
1764808609.494114,0.8246829371973872,6.661700115168094,0.2589281456924975,-2.399977207183838,-2.1984589099884033,-4.729917526245117,,,,,,
1764808609.502193,,,,,,,0.9514206051826477,0.22441554069519043,0.2643365263938904,-1.417454719543457,2.1849071979522705,5.056493759155273
1764808609.504166,0.4536185047522187,6.495346938928962,0.27669264270290733,-2.35489559173584,-2.4155731201171875,-4.7129926681518555,,,,,,
1764808609.512223,,,,,,,0.9326073527336121,0.3077259659767151,0.2922113537788391,-1.7220097780227661,2.1656105518341064,4.84114408493042
1764808609.514219,0.10740502044707537,6.12757044211328,0.3147027860149741,-2.3181872367858887,-2.543095111846924,-4.685157775878906,,,,,,
1764808609.522253,,,,,,,0.9023134112358093,0.41031506657600403,0.27218809723854065,-1.9268397092819214,2.1593031883239746,4.623682975769043
1764808609.524271,-0.278954596285522,5.862630050393939,0.3328631504751742,-2.2932395935058594,-2.564803123474121,-4.62348747253418,,,,,,
1764808609.532283,,,,,,,0.8745909333229065,0.4580884575843811,0.23020410537719727,-2.026665687561035,2.204660654067993,4.419957160949707
1764808609.534324,-0.4899523854151368,6.065169807779789,0.2997648907326162,-2.2757763862609863,-2.479630947113037,-4.503685474395752,,,,,,
1764808609.542313,,,,,,,0.8659634590148926,0.4855469763278961,0.1589123010635376,-2.005969762802124,2.202366828918457,4.228919506072998
1764808609.544376,-0.6184685829520226,6.602873832190037,0.007523088981211185,-2.2436888217926025,-2.2784364223480225,-4.3370232582092285,,,,,,
1764808609.552343,,,,,,,0.8810957670211792,0.5199077129364014,0.1002228856086731,-1.965267539024353,2.1006078720092773,4.011629104614258
1764808609.554428,-0.6844593507319688,6.8789832681775085,-0.3877509249605238,-2.1875009536743164,-2.024467945098877,-4.154700756072998,,,,,,
1764808609.562373,,,,,,,0.8775286078453064,0.54209303855896,0.08335955440998077,-1.916191816329956,2.0107007026672363,3.8137223720550537
1764808609.564481,-0.6543726938955485,6.776421303847432,-0.6912405353046953,-2.119199752807617,-1.7505309581756592,-3.9913387298583984,,,,,,
1764808609.572403,,,,,,,0.8337628245353699,0.5205560922622681,0.08911186456680298,-1.833978533744812,2.001539945602417,3.671008586883545
1764808609.574533,-0.5696965148679912,6.512125055250525,-0.9583321137085556,-2.0524487495422363,-1.4696922302246094,-3.8654286861419678,,,,,,
1764808609.582433,,,,,,,0.7688989043235779,0.4989049434661865,0.10521654784679413,-1.76920747756958,2.0277915000915527,3.524592876434326
1764808609.584586,-0.41253216886520383,6.244161516317725,-1.0875082364588975,-1.9978443384170532,-1.181789517402649,-3.781285047531128,,,,,,
1764808609.592464,,,,,,,0.7179574966430664,0.4657067060470581,0.09935294091701508,-1.7261228561401367,2.1043760776519775,3.388451337814331
1764808609.594638,-0.10301131553277373,6.059561904770136,-1.0263102559134363,-1.9786548614501953,-0.918213963508606,-3.7047812938690186,,,,,,
1764808609.602494,,,,,,,0.7073659896850586,0.4398426413536072,0.0711897686123848,-1.7077231407165527,2.1208789348602295,3.2909095287323
1764808609.60469,0.1781883562657982,5.998991408473253,-1.0576426750272512,-1.9723091125488281,-0.7394178509712219,-3.6389830112457275,,,,,,
1764808609.612524,,,,,,,0.7363422513008118,0.4380429685115814,0.03606504946947098,-1.6004289388656616,2.0858521461486816,3.2332510948181152
1764808609.614743,0.32801728134658187,5.912976089796423,-1.3600035736024378,-1.9601709842681885,-0.6389613151550293,-3.568091630935669,,,,,,
1764808609.622554,,,,,,,0.7603638172149658,0.4701119065284729,-0.011205434799194336,-1.4651998281478882,1.9630918502807617,3.2115776538848877
1764808609.624795,0.6160391638480126,5.964274899879098,-1.7687202758327125,-1.9210227727890015,-0.58003830909729,-3.467219114303589,,,,,,
1764808609.632584,,,,,,,0.7513968348503113,0.5068320035934448,-0.022889677435159683,-1.390195369720459,1.855711817741394,3.1597959995269775
1764808609.634848,0.9928232160490006,5.904820255869627,-2.004968826074898,-1.8748173713684082,-0.525148868560791,-3.336374044418335,,,,,,
1764808609.642614,,,,,,,0.7145108580589294,0.4807440936565399,0.011844215914607048,-1.307237148284912,1.8485554456710815,3.1472702026367188
1764808609.6449,1.2163163296144455,5.92232610194385,-2.022983498454094,-1.8222625255584717,-0.47763967514038086,-3.215841770172119,,,,,,
1764808609.652644,,,,,,,0.6915269494056702,0.43825650215148926,0.06757545471191406,-1.2759894132614136,1.8340915441513062,3.0899293422698975
1764808609.654952,1.021186044767499,6.056511285027861,-1.961878164628148,-1.749478816986084,-0.4552842974662781,-3.1450295448303223,,,,,,
1764808609.662674,,,,,,,0.6863375902175903,0.4317018985748291,0.08666586875915527,-1.297926902770996,1.7706319093704224,2.9852824211120605
1764808609.665005,0.7514566652059554,6.175083303916454,-1.7233599158883093,-1.6812297105789185,-0.48791149258613586,-3.0987725257873535,,,,,,
1764808609.672704,,,,,,,0.6842523813247681,0.4325178861618042,0.10414564609527588,-1.422204613685608,1.6735879182815552,2.8406288623809814
1764808609.675057,0.7085941134266555,5.992686170849204,-1.5221663124144076,-1.6248732805252075,-0.5696264505386353,-3.049511671066284,,,,,,
1764808609.682734,,,,,,,0.650628924369812,0.4169773757457733,0.09974706172943115,-1.6885324716567993,1.5777242183685303,2.7026610374450684
1764808609.68511,0.8513318746700882,5.4972851646393535,-1.3001044006958604,-1.592862606048584,-0.7278488278388977,-3.004102945327759,,,,,,
1764808609.692764,,,,,,,0.6084297895431519,0.3614598214626312,0.11250162124633789,-1.9732611179351807,1.5428754091262817,2.562577486038208
1764808609.695162,1.152859245030582,4.9220256088167424,-1.227856618347764,-1.5740505456924438,-0.9726860523223877,-2.966660499572754,,,,,,
1764808609.702795,,,,,,,0.5585475564002991,0.34668558835983276,0.10629212856292725,-2.207181930541992,1.589464783668518,2.450068473815918
1764808609.705214,1.6261306908883153,4.88745289260745,-1.2206187760487197,-1.552968978881836,-1.2960689067840576,-2.9107041358947754,,,,,,
1764808609.712825,,,,,,,0.5820242762565613,0.3716847002506256,0.10307765007019043,-2.387239456176758,1.5260155200958252,2.3946690559387207
1764808609.715267,1.9700883590906857,5.517200409942865,-1.216873159779608,-1.4839626550674438,-1.6943016052246094,-2.798584222793579,,,,,,
1764808609.722855,,,,,,,0.6750649809837341,0.35162097215652466,0.11944401264190674,-2.645627737045288,1.2985011339187622,2.278658866882324
1764808609.725319,1.9034467261865733,6.129684657788276,-1.0909896488338708,-1.3986468315124512,-2.117926836013794,-2.6490890979766846,,,,,,
1764808609.732885,,,,,,,0.7393485307693481,0.3011591136455536,0.14200055599212646,-2.8515372276306152,0.9933838248252869,2.1496853828430176
1764808609.735372,1.469361043291539,6.0757321183264255,-1.0816291152924298,-1.2947375774383545,-2.444199800491333,-2.482052803039551,,,,,,
1764808609.742915,,,,,,,0.6811603307723999,0.30438032746315,0.16894292831420898,-3.002609968185425,0.8322370052337646,2.0965399742126465
1764808609.745424,0.6859932823009789,5.2099342036694285,-1.0381950472354888,-1.2353756427764893,-2.650226354598999,-2.373934030532837,,,,,,
1764808609.752945,,,,,,,0.5676827430725098,0.3189804255962372,0.1971745491027832,-3.097505569458008,0.7137175798416138,2.063380002975464
1764808609.755476,-0.4807651626139879,3.876886441531777,-0.9882242708861827,-1.2630987167358398,-2.659769296646118,-2.356506109237671,,,,,,
1764808609.762975,,,,,,,0.4456005096435547,0.29377394914627075,0.19553124904632568,-3.038266897201538,0.7544615268707275,2.047384738922119
1764808609.765529,-1.1889977492518722,2.882113187393546,-1.1921189500123262,-1.3941919803619385,-2.4173498153686523,-2.4108688831329346,,,,,,
1764808609.773005,,,,,,,0.34229588508605957,0.31859490275382996,0.14222753047943115,-2.75081205368042,0.8611304759979248,2.0891387462615967
1764808609.775581,-1.4084303353801368,2.3012077346384525,-1.7913216914802788,-1.5724400281906128,-1.909441590309143,-2.5048322677612305,,,,,,
1764808609.783035,,,,,,,0.3023344874382019,0.393257200717926,0.02472519502043724,-2.221644401550293,1.0091243982315063,2.2034571170806885
1764808609.785634,-1.065629289866984,2.253365787011385,-2.5678806492388246,-1.729345440864563,-1.2742114067077637,-2.5572361946105957,,,,,,
1764808609.793065,,,,,,,0.3390694856643677,0.5073443055152893,-0.08156907558441162,-1.696567177772522,1.002352237701416,2.331716299057007
1764808609.795686,-0.20808687011897561,2.8353526052623987,-3.0038971540659665,-1.8164844512939453,-0.6338057518005371,-2.4828150272369385,,,,,,
1764808609.803095,,,,,,,0.3979707956314087,0.5313873887062073,-0.13119637966156006,-1.3063178062438965,0.9569933414459229,2.4232139587402344
1764808609.805738,0.680387863509357,3.3547160863399506,-3.0936914067596195,-1.828166127204895,-0.08193539828062057,-2.34403133392334,,,,,,
1764808609.813125,,,,,,,0.3985462188720703,0.49925267696380615,-0.14417266845703125,-1.0211833715438843,0.9431185126304626,2.5217301845550537
1764808609.815791,1.3606500548124312,3.573175881913304,-2.9168121603310104,-1.789142370223999,0.2905467450618744,-2.2521984577178955,,,,,,
1764808609.823156,,,,,,,0.3602765202522278,0.4854941964149475,-0.1205744743347168,-0.8487547636032104,0.9502986669540405,2.5542213916778564
1764808609.825843,1.8797642373040317,3.3392519752264023,-2.578420747953653,-1.7321885824203491,0.41068461537361145,-2.2676024436950684,,,,,,
1764808609.833186,,,,,,,0.30761903524398804,0.4890456199645996,-0.09724688529968262,-0.7508705854415894,0.9835759401321411,2.5367746353149414
1764808609.835896,2.5375632523864504,2.8246131845831868,-2.2501398107022044,-1.6807658672332764,0.33712247014045715,-2.363734245300293,,,,,,
1764808609.843216,,,,,,,0.25533729791641235,0.486606240272522,-0.08948969095945358,-0.6480156779289246,1.0207488536834717,2.5205488204956055
1764808609.845948,3.388581823323667,2.2698411209940907,-2.309826509901881,-1.6082466840744019,0.1802220642566681,-2.4719417095184326,,,,,,
1764808609.853246,,,,,,,0.21069198846817017,0.5038497447967529,-0.10236644744873047,-0.5942176580429077,1.1231409311294556,2.4979403018951416
1764808609.856,4.275314389459789,2.0552537829399107,-2.523649877846241,-1.5351907014846802,-0.015402535907924175,-2.4988880157470703,,,,,,
1764808609.863276,,,,,,,0.19376075267791748,0.5422577261924744,-0.12936639785766602,-0.6490268111228943,1.1996512413024902,2.47172212600708
1764808609.866053,5.021390822932124,2.3601415696442127,-2.5735662936598063,-1.4674601554870605,-0.23634450137615204,-2.4060091972351074,,,,,,
1764808609.873306,,,,,,,0.21978068351745605,0.538068413734436,-0.16921842098236084,-0.7261322140693665,1.156424641609192,2.415905714035034
1764808609.876105,5.085249839380383,2.5198311963409186,-2.8610353280514476,-1.3701456785202026,-0.42571255564689636,-2.2536497116088867,,,,,,
1764808609.883336,,,,,,,0.24670708179473877,0.5642407536506653,-0.20112180709838867,-0.7694491744041443,1.086342453956604,2.332728624343872
1764808609.886158,4.603418801100552,2.498264676699042,-3.0808342632740735,-1.2879791259765625,-0.526276171207428,-2.091305732727051,,,,,,
1764808609.893366,,,,,,,0.2528949975967407,0.6385370492935181,-0.22426509857177734,-0.7934229373931885,0.9980859160423279,2.2551257610321045
1764808609.89621,4.086830629955232,2.6330197686254975,-2.9694898575514554,-1.2324665784835815,-0.5421470403671265,-1.9432041645050049,,,,,,
1764808609.903396,,,,,,,0.23960351943969727,0.6513243913650513,-0.21028709411621094,-0.8263391852378845,0.8600233793258667,2.114407539367676
1764808609.906262,3.460165881066024,2.391187280771136,-3.090284813186526,-1.1759742498397827,-0.47521331906318665,-1.8574786186218262,,,,,,
1764808609.913426,,,,,,,0.1812518835067749,0.6314185857772827,-0.19991302490234375,-0.8184453248977661,0.7793285250663757,1.939737319946289
1764808609.916315,3.0489763589814305,1.7555676565319298,-3.2860160596013066,-1.129353642463684,-0.33711108565330505,-1.8262763023376465,,,,,,
1764808609.923456,,,,,,,0.09760981798171997,0.6542314291000366,-0.19920992851257324,-0.7078070044517517,0.7917732000350952,1.8241071701049805
1764808609.926367,3.2088150387600063,1.3655252596333622,-3.2809844951748848,-1.0989412069320679,-0.2031618058681488,-1.7868069410324097,,,,,,
1764808609.933486,,,,,,,0.041134774684906006,0.6860840320587158,-0.2113780975341797,-0.5803452134132385,0.8063995838165283,1.7176460027694702
1764808609.93642,3.600254442974925,1.144541206279397,-3.3950521883815523,-1.0541614294052124,-0.08394219726324081,-1.7294394969940186,,,,,,
1764808609.943517,,,,,,,0.010378003120422363,0.7087005376815796,-0.2515561580657959,-0.44232377409935,0.8085378408432007,1.593191385269165
1764808609.946472,3.9500250352397557,0.9923895738720894,-3.7696705139160156,-0.9944994449615479,0.04576093703508377,-1.632344365119934,,,,,,
1764808609.953547,,,,,,,0.008473575115203857,0.7482421398162842,-0.29133665561676025,-0.27049529552459717,0.8018413186073303,1.5094795227050781
1764808609.956524,4.45268200392723,1.2355895506873726,-3.96567414753139,-0.9174330830574036,0.1378720998764038,-1.4744970798492432,,,,,,
1764808609.963577,,,,,,,0.03488367795944214,0.7861379384994507,-0.30542612075805664,-0.19037912786006927,0.7426016926765442,1.3925096988677979
1764808609.966577,4.8185903687834735,1.7389479456424712,-3.9117701233863826,-0.8041262030601501,0.15733873844146729,-1.2820539474487305,,,,,,
1764808609.973607,,,,,,,0.06420189142227173,0.7730374932289124,-0.29340600967407227,-0.17959465086460114,0.6040182113647461,1.223547339439392
1764808609.976629,4.8543596013009545,2.059080063229799,-3.846975871914625,-0.633114218711853,0.12664595246315002,-1.107274055480957,,,,,,
1764808609.983637,,,,,,,0.05575293302536011,0.7306267023086548,-0.25895369052886963,-0.17599761486053467,0.45745089650154114,1.0060185194015503
1764808609.986682,4.55482895771563,1.629323203319311,-3.797461607161164,-0.4586271345615387,0.10468552261590958,-1.0082851648330688,,,,,,
1764808609.993667,,,,,,,-0.017234086990356445,0.7421372532844543,-0.2646595239639282,-0.07460681349039078,0.410797655582428,0.8015282154083252
1764808609.996734,4.365816790422797,0.806510736168921,-3.6078041277021167,-0.3391996920108795,0.16226783394813538,-0.954470157623291,,,,,,
1764808610.003697,,,,,,,-0.10101675987243652,0.7975416779518127,-0.3031831979751587,0.10816225409507751,0.4540577828884125,0.6580262184143066
1764808610.006787,4.613991925302147,0.27186200767606494,-3.4532162080585955,-0.268331915140152,0.3206755816936493,-0.8737164735794067,,,,,,
1764808610.013727,,,,,,,-0.15899968147277832,0.7893778085708618,-0.35543501377105713,0.3020036220550537,0.517038881778717,0.5261608958244324
1764808610.016839,5.028758721351624,0.036303193263709545,-3.482434119236469,-0.21415553987026215,0.5203385353088379,-0.7459325194358826,,,,,,
1764808610.023757,,,,,,,-0.1685781478881836,0.7608152627944946,-0.43081653118133545,0.45662182569503784,0.5370477437973022,0.41874027252197266
1764808610.026891,5.440370268240571,0.07277063717842101,-3.3994361025542017,-0.1606590300798416,0.6423989534378052,-0.577553391456604,,,,,,
1764808610.033787,,,,,,,-0.12074649333953857,0.7476409673690796,-0.4868030846118927,0.5433114171028137,0.44074010848999023,0.31860116124153137
1764808610.036944,5.817478657025099,0.16337854434251783,-3.247584914398193,-0.10167531669139862,0.6621812582015991,-0.39301639795303345,,,,,,
1764808610.043817,,,,,,,-0.08018428087234497,0.7140417098999023,-0.5077288150787354,0.5601189732551575,0.2790968716144562,0.20777225494384766
1764808610.046996,6.090004389306903,-0.03748714235126972,-3.1794705785930155,-0.044984348118305206,0.6538810133934021,-0.22795552015304565,,,,,,
1764808610.053847,,,,,,,-0.10101640224456787,0.6534376740455627,-0.488918662071228,0.5414401292800903,0.14145725965499878,0.09311625361442566
1764808610.057048,6.222357096266746,-0.5483741792455316,-3.1419892814606425,0.020881209522485733,0.642323911190033,-0.09313414245843887,,,,,,
1764808610.063879,,,,,,,-0.16264963150024414,0.6251636147499084,-0.4763503074645996,0.516266942024231,0.09352540969848633,-0.003836660413071513
1764808610.0671,6.287631824731826,-0.9659832129836082,-2.83921044973433,0.06626493483781815,0.5804640054702759,0.04396938160061836,,,,,,
1764808610.073909,,,,,,,-0.1991094946861267,0.6376920342445374,-0.4768604040145874,0.4698568880558014,0.0659547671675682,-0.06632506847381592
1764808610.077152,6.350249901208281,-0.8524617554828524,-2.434726562768221,0.11788787692785263,0.4245166480541229,0.21563167870044708,,,,,,
1764808610.083939,,,,,,,-0.17285770177841187,0.6089406609535217,-0.4481542110443115,0.38289710879325867,-0.021103698760271072,-0.15274950861930847
1764808610.087205,6.163092421871423,-0.37011429211348296,-2.291521622404456,0.2062489092350006,0.20449639856815338,0.3967455327510834,,,,,,
1764808610.093969,,,,,,,-0.11870336532592773,0.5373619794845581,-0.40068089962005615,0.20809492468833923,-0.17603228986263275,-0.316188246011734
1764808610.097257,5.585764827603102,0.013557400709390639,-2.229864499914646,0.30023089051246643,-0.020465955138206482,0.5476200580596924,,,,,,
1764808610.103999,,,,,,,-0.07919567823410034,0.4878472685813904,-0.35362696647644043,0.020012905821204185,-0.3533801734447479,-0.5144488215446472
1764808610.107309,4.84657201616466,0.06600041239112615,-2.1054712275266647,0.38015180826187134,-0.18521948158740997,0.6534754037857056,,,,,,
1764808610.114029,,,,,,,-0.08390533924102783,0.48483383655548096,-0.3115178346633911,-0.10354232043027878,-0.44995278120040894,-0.6729686856269836
1764808610.117362,4.167731674358248,-0.07085252859741449,-2.1347908455133435,0.44093820452690125,-0.2226262390613556,0.7366174459457397,,,,,,
1764808610.124059,,,,,,,-0.10977870225906372,0.4946778416633606,-0.2682994604110718,-0.08133839815855026,-0.48952630162239075,-0.7997382283210754
1764808610.127414,3.577829260677099,-0.07788871084451675,-2.2637977491766215,0.495201975107193,-0.12927232682704926,0.8172920346260071,,,,,,
1764808610.134089,,,,,,,-0.13073498010635376,0.4898883104324341,-0.26157844066619873,0.010788332670927048,-0.5040831565856934,-0.9390793442726135
1764808610.137467,3.0732308025330304,-0.04759820199906826,-2.353404370343685,0.5364280343055725,0.034130506217479706,0.8943113088607788,,,,,,
1764808610.144119,,,,,,,-0.11523580551147461,0.5331648588180542,-0.29636263847351074,0.1618439257144928,-0.5411434173583984,-1.0482177734375
1764808610.147519,2.8478070131659505,0.06359861194640398,-2.2734745090603825,0.5643280744552612,0.19602006673812866,0.9909752607345581,,,,,,
1764808610.154149,,,,,,,-0.07705450057983398,0.5582968592643738,-0.31831538677215576,0.269721120595932,-0.606253981590271,-1.1380685567855835
