timestamp,phone_accel_x,phone_accel_y,phone_accel_z,phone_gyro_x,phone_gyro_y,phone_gyro_z,watch_accel_x,watch_accel_y,watch_accel_z,watch_gyro_x,watch_gyro_y,watch_gyro_z
1764808583.208555,-3.2687036902725697,0.9927858797132968,0.3460849625546485,1.096895456314087,0.7916086316108704,1.1118032932281494,,,,,,
1764808583.213357,,,,,,,0.1932949423789978,-0.38124340772628784,0.12035411596298218,0.9386388659477234,0.7947575449943542,-1.1273013353347778
1764808583.218607,-3.232034294044971,0.6987228538841008,0.26204353776667266,1.0324996709823608,0.8300492167472839,0.9754281640052795,,,,,,
1764808583.223387,,,,,,,0.1630282998085022,-0.3838847875595093,0.11558616161346436,0.9402558207511902,0.8413199782371521,-0.9909272193908691
1764808583.22866,-3.1023651270806787,0.6439613361269235,0.17134554116632789,0.9639517068862915,0.8622151613235474,0.860639214515686,,,,,,
1764808583.233417,,,,,,,0.1604512333869934,-0.37876904010772705,0.10722613334655762,0.9851047992706299,0.8629997372627258,-0.8612080812454224
1764808583.238713,-2.895433272215724,0.7694763060212135,0.1390542504251003,0.9089615941047668,0.8856990337371826,0.7705895900726318,,,,,,
1764808583.243447,,,,,,,0.16815519332885742,-0.36069220304489136,0.09540849924087524,1.0751351118087769,0.8804229497909546,-0.7158718109130859
1764808583.248765,-2.7270331003189083,0.895115194556117,0.07823821840193122,0.8471400737762451,0.8922445178031921,0.6802916526794434,,,,,,
1764808583.253477,,,,,,,0.179681658744812,-0.332847535610199,0.08144336938858032,1.2410939931869507,0.8645387887954712,-0.5382306575775146
1764808583.258817,-2.630801508054137,0.9717752403885126,0.10204937516544013,0.7812958359718323,0.9052266478538513,0.5826876759529114,,,,,,
1764808583.263507,,,,,,,0.20476466417312622,-0.3362841010093689,0.06828689575195312,1.4539567232131958,0.8045473694801331,-0.378003865480423
1764808583.268869,-2.6073160030484197,1.014473395386338,0.0032581615457311273,0.722659170627594,0.9326492547988892,0.4751740097999573,,,,,,
1764808583.273537,,,,,,,0.209758460521698,-0.3653729557991028,0.06740492582321167,1.5591681003570557,0.7460898756980896,-0.2963007390499115
1764808583.278923,-2.5972324159294367,0.9451023375183343,-0.055923583806492386,0.6461176872253418,0.9496254324913025,0.3612929880619049,,,,,,
1764808583.283566,,,,,,,0.18813544511795044,-0.38133704662323,0.07503032684326172,1.5091196298599243,0.729088544845581,-0.188479945063591
1764808583.288975,-2.6159482223153114,0.8053086669027805,0.11481876730229705,0.5644888877868652,0.9270101189613342,0.23842273652553558,,,,,,
1764808583.293597,,,,,,,0.17343533039093018,-0.3910788297653198,0.10037004947662354,1.3618627786636353,0.7298784255981445,-0.05485130846500397
1764808583.299026,-2.689176540133357,0.7805389673054218,0.23118775972127914,0.5113947987556458,0.8780514001846313,0.12191147357225418,,,,,,
1764808583.303627,,,,,,,0.16384661197662354,-0.39230823516845703,0.128562331199646,1.1947883367538452,0.7228418588638306,0.054935578256845474
1764808583.309079,-2.7099586313992736,0.8977326835781335,0.1409807980408892,0.48976191878318787,0.8362530469894409,0.01751742511987686,,,,,,
1764808583.313657,,,,,,,0.16121381521224976,-0.38796931505203247,0.13954472541809082,0.9949058294296265,0.6957622766494751,0.1241985335946083
1764808583.319131,-2.6053911724656817,1.046876366341114,-0.004885470486618578,0.4815424084663391,0.7657363414764404,-0.0748942419886589,,,,,,
1764808583.323687,,,,,,,0.15770041942596436,-0.3845434784889221,0.1368219256401062,0.7905769944190979,0.6710934042930603,0.16938205063343048
1764808583.329183,-2.4038784200400114,1.0855647011756897,0.08736377414371818,0.4603438973426819,0.6368007063865662,-0.16417938470840454,,,,,,
1764808583.333717,,,,,,,0.15619736909866333,-0.3799094557762146,0.12925320863723755,0.5903341770172119,0.6427592635154724,0.2150384932756424
1764808583.339236,-2.1700532975524665,1.0377180773735046,0.24862054055929184,0.43078434467315674,0.47801268100738525,-0.24511319398880005,,,,,,
1764808583.343748,,,,,,,0.1616019606590271,-0.35191810131073,0.11098110675811768,0.4240432381629944,0.5985441207885742,0.2508009374141693
1764808583.349288,-1.9092162494987248,0.9785556943088769,0.3439022847533226,0.3989609181880951,0.30745720863342285,-0.3039171099662781,,,,,,
1764808583.353778,,,,,,,0.17131805419921875,-0.31387871503829956,0.07976609468460083,0.33297643065452576,0.549553394317627,0.2909643352031708
1764808583.35934,-1.6637667401909828,1.0174491963267325,0.3864741830229759,0.3664250075817108,0.14624938368797302,-0.3279212713241577,,,,,,
1764808583.363808,,,,,,,0.18325167894363403,-0.2780228853225708,0.045966923236846924,0.28959599137306213,0.48299142718315125,0.3084591329097748
1764808583.369393,-1.48773388145864,1.090921844294667,0.47386838883757587,0.3305615484714508,0.007061933167278767,-0.32443705201148987,,,,,,
1764808583.373838,,,,,,,0.18402308225631714,-0.2549412250518799,0.02278047427535057,0.2637614607810974,0.43419644236564636,0.31355535984039307
1764808583.379446,-1.450150292995572,1.1017875217020512,0.5799602808594704,0.2961009740829468,-0.10172572731971741,-0.3148413598537445,,,,,,
1764808583.383868,,,,,,,0.17615646123886108,-0.24963593482971191,0.017679808661341667,0.22738821804523468,0.4125553369522095,0.3238583207130432
1764808583.389498,-1.5451602345108986,1.0310217946052551,0.7129670678138732,0.2616257965564728,-0.1745205819606781,-0.32411128282546997,,,,,,
1764808583.393898,,,,,,,0.161024272441864,-0.24879705905914307,0.015545845031738281,0.1695217341184616,0.3999423384666443,0.34419021010398865
1764808583.39955,-1.7600018395870922,0.9367968659877777,0.8564531632065773,0.23161892592906952,-0.2211565524339676,-0.3540952801704407,,,,,,
1764808583.403928,,,,,,,0.15751516819000244,-0.24248063564300537,0.02162933349609375,0.08882428705692291,0.37210193276405334,0.3431639075279236
1764808583.409602,-1.9829986940681934,0.8863958815276622,0.9344774831295013,0.21745730936527252,-0.23488087952136993,-0.3955950438976288,,,,,,
1764808583.413958,,,,,,,0.1521105170249939,-0.2303505539894104,0.029568374156951904,-0.025107868015766144,0.348747581243515,0.32974663376808167
1764808583.419654,-2.0926059007346627,0.8913894520312547,0.9466589193105697,0.2196531593799591,-0.20919141173362732,-0.43866726756095886,,,,,,
1764808583.423988,,,,,,,0.1448979377746582,-0.2267667055130005,0.029973147436976433,-0.1449340432882309,0.34643837809562683,0.33316874504089355
1764808583.429708,-2.096575973409414,1.0016875635713338,0.887504135030508,0.23582573235034943,-0.1489456593990326,-0.4715607762336731,,,,,,
1764808583.434017,,,,,,,0.13481414318084717,-0.22883176803588867,0.028601765632629395,-0.24017854034900665,0.3569543957710266,0.3381059765815735
1764808583.43976,-1.9970657978653907,1.0488146409273147,0.8846867395222187,0.2581559717655182,-0.07603442668914795,-0.502476692199707,,,,,,
1764808583.444048,,,,,,,0.12332344055175781,-0.2057749629020691,0.013112902641296387,-0.27829912304878235,0.3750036954879761,0.35546785593032837
1764808583.449811,-1.7879156824290752,1.002505894216895,0.9127472973585128,0.2726975083351135,-0.016255022957921028,-0.5282939076423645,,,,,,
1764808583.454078,,,,,,,0.12323325872421265,-0.16194546222686768,-0.012562394142150879,-0.2579334080219269,0.38591280579566956,0.37866613268852234
1764808583.459864,-1.5358745197713375,0.9337035761475563,1.0061059645354746,0.27883291244506836,0.02157571353018284,-0.5506268739700317,,,,,,
1764808583.464108,,,,,,,0.13017642498016357,-0.12072426080703735,-0.039873480796813965,-0.18002697825431824,0.38317668437957764,0.39077410101890564
1764808583.469916,-1.2166677003353834,0.8377806114405393,1.1199638143837451,0.2786908447742462,0.04527600109577179,-0.5586928129196167,,,,,,
1764808583.474138,,,,,,,0.13404977321624756,-0.09452599287033081,-0.06489574909210205,-0.0848407968878746,0.37840721011161804,0.41095954179763794
1764808583.479969,-0.8941887273609638,0.7646990086168051,1.2295382878243923,0.26972901821136475,0.07630768418312073,-0.5533068180084229,,,,,,
1764808583.484169,,,,,,,0.13082057237625122,-0.08068549633026123,-0.08333635330200195,0.017285972833633423,0.3777180016040802,0.4301295578479767
1764808583.490021,-0.6597966186404228,0.6869143426686525,1.2680804921865463,0.25704413652420044,0.11348408460617065,-0.5335544347763062,,,,,,
1764808583.494199,,,,,,,0.1192813515663147,-0.07533484697341919,-0.09237337112426758,0.0987456813454628,0.3910607099533081,0.43591395020484924
1764808583.500073,-0.5320820928752422,0.6031669689238071,1.2729518976151943,0.24872756004333496,0.16131502389907837,-0.5164344906806946,,,,,,
1764808583.504229,,,,,,,0.10699373483657837,-0.0688963532447815,-0.09414219856262207,0.16066423058509827,0.4035397469997406,0.441050261259079
1764808583.510125,-0.5266784802660346,0.5308715480417013,1.283433544141054,0.24735257029533386,0.20872536301612854,-0.49757272005081177,,,,,,
1764808583.514259,,,,,,,0.09646737575531006,-0.05824762582778931,-0.09627830982208252,0.20981712639331818,0.41427093744277954,0.44464632868766785
1764808583.520178,-0.5352662758693099,0.4647802424967289,1.2781523888677357,0.2439277470111847,0.2590732276439667,-0.4768517315387726,,,,,,
1764808583.524289,,,,,,,0.08271867036819458,-0.04629409313201904,-0.10175907611846924,0.24825523793697357,0.4271118938922882,0.43705978989601135
1764808583.530231,-0.5546902305245399,0.3749579327523708,1.3007529277324676,0.23679740726947784,0.3120875060558319,-0.46637821197509766,,,,,,
1764808583.534319,,,,,,,0.07345777750015259,-0.030198395252227783,-0.11048698425292969,0.3111684322357178,0.43405476212501526,0.4315326511859894
1764808583.540282,-0.549837237535417,0.2806716293364763,1.2449661585807799,0.2277221530675888,0.3656034469604492,-0.4559956192970276,,,,,,
1764808583.544349,,,,,,,0.06646716594696045,-0.016021013259887695,-0.11449861526489258,0.38724881410598755,0.4247851073741913,0.4137681722640991
1764808583.550335,-0.44282326223254204,0.20889117223918438,1.1303051756560802,0.21514298021793365,0.42292240262031555,-0.43978947401046753,,,,,,
1764808583.554379,,,,,,,0.06121325492858887,-0.004397332668304443,-0.11271405220031738,0.4433280825614929,0.41389012336730957,0.3928764760494232
1764808583.560387,-0.2994511486083269,0.17208616693317888,1.069659276035428,0.19891782104969025,0.4825160503387451,-0.4210563600063324,,,,,,
1764808583.564409,,,,,,,0.0576857328414917,0.0015701651573181152,-0.10665632039308548,0.4773327708244324,0.40112611651420593,0.38649699091911316
1764808583.570439,-0.14944880318939685,0.13960779265463352,0.9929501303642988,0.17938874661922455,0.5433644652366638,-0.4034099280834198,,,,,,
1764808583.574439,,,,,,,0.05455052852630615,-0.0015919208526611328,-0.10645711421966553,0.505137026309967,0.37931856513023376,0.3917793929576874
1764808583.580492,-0.009817045137286186,0.13407763105630874,0.8946563448727131,0.1622249335050583,0.5894880294799805,-0.3856982886791229,,,,,,
1764808583.584468,,,,,,,0.050956904888153076,-0.006669282913208008,-0.10956394672393799,0.4996887445449829,0.34756407141685486,0.38341256976127625
1764808583.590544,0.10308072750717401,0.07793722616136074,0.7679454431921243,0.13968980312347412,0.6179172992706299,-0.3630656898021698,,,,,,
1764808583.594499,,,,,,,0.04716271162033081,-0.01285475492477417,-0.10411632061004639,0.48922014236450195,0.3167731463909149,0.3844722509384155
1764808583.600596,0.20397855801731346,0.014845102432370185,0.7312672791361808,0.11752530932426453,0.6190196871757507,-0.34140390157699585,,,,,,
1764808583.604529,,,,,,,0.03978705406188965,-0.013918876647949219,-0.09210073947906494,0.4639861583709717,0.28615719079971313,0.3905448913574219
1764808583.610649,0.27243367008417846,-0.05008651168346405,0.6914262671351432,0.0959012359380722,0.6044915914535522,-0.3304165005683899,,,,,,
1764808583.61456,,,,,,,0.03194069862365723,-0.007847785949707031,-0.08018302917480469,0.44095486402511597,0.2559249699115753,0.3914085328578949
1764808583.620702,0.3044973260819912,-0.04944003047347068,0.5912205105423927,0.07597523927688599,0.5812492966651917,-0.32937780022621155,,,,,,
1764808583.62459,,,,,,,0.029450058937072754,-0.017247498035430908,-0.07703995704650879,0.391692578792572,0.2238999307155609,0.3858359456062317
1764808583.630754,0.3077554510951042,-0.026972178077697754,0.4806804069399833,0.058830082416534424,0.5504139065742493,-0.3335232734680176,,,,,,
1764808583.63462,,,,,,,0.030139923095703125,-0.03131169080734253,-0.07109785079956055,0.3266057074069977,0.18956486880779266,0.3775404393672943
1764808583.640806,0.3377200889870524,-0.028543957439064977,0.4332721745550632,0.04062933474779129,0.5002669095993042,-0.3286689817905426,,,,,,
1764808583.64465,,,,,,,0.026520907878875732,-0.027108728885650635,-0.062328215688467026,0.2668382525444031,0.16072149574756622,0.3667517900466919
1764808583.650858,0.40004181286543605,-0.06693477063179015,0.47726446101665493,0.021445520222187042,0.438456267118454,-0.32083582878112793,,,,,,
1764808583.65468,,,,,,,0.01835411787033081,-0.006794571876525879,-0.05613982677459717,0.22806741297245026,0.13673333823680878,0.3675832450389862
1764808583.66091,0.4279705610156059,-0.09075637572407722,0.44303252106904983,0.003232222516089678,0.3736266791820526,-0.3061423599720001,,,,,,
1764808583.66471,,,,,,,0.01850450038909912,-0.0004776120185852051,-0.05918169021606445,0.2180117517709732,0.10795361548662186,0.3576359152793884
1764808583.670964,0.4418368815436959,-0.09096388099491595,0.3900140475869179,-0.02689424715936184,0.30681416392326355,-0.29203546047210693,,,,,,
1764808583.67474,,,,,,,0.015327751636505127,-0.0026698708534240723,-0.06438028812408447,0.18794679641723633,0.09412355720996857,0.33923959732055664
1764808583.681015,0.45496173605471846,-0.1266723232358694,0.38887306085824963,-0.056402869522571564,0.2395922690629959,-0.28516024351119995,,,,,,
1764808583.68477,,,,,,,0.016276955604553223,0.007676601409912109,-0.05202138423919678,0.176260843873024,0.07429365813732147,0.338349848985672
1764808583.691067,0.4304223380818963,-0.10236673401892185,0.3332569720983505,-0.07736994326114655,0.18974535167217255,-0.27615901827812195,,,,,,
1764808583.6948,,,,,,,0.019549190998077393,0.02172219753265381,-0.03836488723754883,0.18410545587539673,0.038462430238723755,0.34835800528526306
1764808583.70112,0.3909250249519944,-0.0158726919144392,0.16011925028562546,-0.08342418074607849,0.17302745580673218,-0.2639540135860443,,,,,,
1764808583.70483,,,,,,,0.02181953191757202,0.015450656414031982,-0.03275001049041748,0.18625228106975555,0.0036719562485814095,0.33797600865364075
1764808583.711172,0.32513942435532805,0.026170214045047758,-0.047548499372135844,-0.09060858935117722,0.16119663417339325,-0.25071462988853455,,,,,,
1764808583.71486,,,,,,,0.014292478561401367,-0.006133079528808594,-0.024442315101623535,0.14771100878715515,-0.009365282021462917,0.318564236164093
1764808583.721225,0.26633710677474737,0.006741290953755378,-0.04687047224640846,-0.1060909852385521,0.1398823857307434,-0.24021495878696442,,,,,,
1764808583.72489,,,,,,,0.006537437438964844,-0.0006500482559204102,-0.014402985572814941,0.11442997306585312,-0.025467021390795708,0.32092130184173584
1764808583.731277,0.20929420008212327,-0.04581891736686229,0.04927987147569656,-0.112457275390625,0.11605241149663925,-0.23312801122665405,,,,,,
1764808583.734919,,,,,,,0.004478335380554199,0.01801300048828125,-0.006074428558349609,0.11279851943254471,-0.03888402506709099,0.3156527876853943
1764808583.741329,0.133282681286335,-0.056369537475705146,0.044085828230250625,-0.11326626688241959,0.09691742062568665,-0.22075431048870087,,,,,,
1764808583.74495,,,,,,,-0.000677943229675293,0.0190466046333313,-0.006062030792236328,0.10054486244916916,-0.043015386909246445,0.2891030013561249
1764808583.751381,0.070926178355515,-0.06047989540398121,0.0019184008419513702,-0.11490704119205475,0.08165750652551651,-0.20834822952747345,,,,,,
1764808583.754981,,,,,,,-0.005245327949523926,0.0029734373092651367,0.0007534027099609375,0.06622576713562012,-0.045542195439338684,0.254533052444458
1764808583.761435,0.003269230929017067,-0.029593758752942085,0.011785166872479021,-0.11767125874757767,0.0626629963517189,-0.196637824177742,,,,,,
1764808583.765011,,,,,,,-0.00486987829208374,-0.0029537081718444824,0.0059431809931993484,0.03249425068497658,-0.04991137608885765,0.2428451031446457
1764808583.771487,-0.03170797442793846,-0.01855798547565937,0.020676840793155134,-0.11403369903564453,0.048818331211805344,-0.18678323924541473,,,,,,
1764808583.775041,,,,,,,-0.0015350580215454102,0.006919801235198975,0.008073687553405762,0.032240983098745346,-0.052897047251462936,0.2281002402305603
1764808583.781538,-0.04717237780243158,0.00852934341430664,-0.01581126231709495,-0.10905172675848007,0.039446670562028885,-0.1735854148864746,,,,,,
1764808583.785071,,,,,,,-0.0015186667442321777,0.016453862190246582,0.008573414757847786,0.03957437351346016,-0.05056038871407509,0.21473202109336853
1764808583.791591,-0.05350801056474447,0.012552023059129714,-0.05343932924270629,-0.10592677444219589,0.03633236885070801,-0.1588117927312851,,,,,,
1764808583.795101,,,,,,,-0.0033628344535827637,0.01179647445678711,0.010386347770690918,0.04256590083241463,-0.04810122400522232,0.2052495777606964
1764808583.801643,-0.055743806792795655,0.005166004461050033,-0.07341941994335502,-0.10681042075157166,0.03418393060564995,-0.1513366848230362,,,,,,
1764808583.805131,,,,,,,-0.0024712681770324707,-0.003043949604034424,0.012423278763890266,0.0344906747341156,-0.04401620104908943,0.19214610755443573
1764808583.811695,-0.08982114070057869,0.004140168544650077,-0.07468669993281364,-0.10232166200876236,0.03548035770654678,-0.14885887503623962,,,,,,
1764808583.815161,,,,,,,-0.0021933317184448242,-0.010208368301391602,0.020186662673950195,0.0367216058075428,-0.03791516646742821,0.19092105329036713
1764808583.821748,-0.1362254567399621,0.0282990427672863,-0.10511457142233847,-0.09611043334007263,0.037354402244091034,-0.15008370578289032,,,,,,
1764808583.825191,,,,,,,-0.0017004013061523438,-0.005983948707580566,0.02378547377884388,0.05205906927585602,-0.03247139975428581,0.19034546613693237
1764808583.8318,-0.15262304931133985,0.05064589913189411,-0.13460834039952604,-0.08716869354248047,0.048584092408418655,-0.14724783599376678,,,,,,
1764808583.835221,,,,,,,-0.0010657310485839844,-0.003270447254180908,0.026307107880711555,0.06385713815689087,-0.027059592306613922,0.19176146388053894
1764808583.841852,-0.17822715390622615,0.06870879456698895,-0.17756489060521125,-0.08225409686565399,0.06998312473297119,-0.14209462702274323,,,,,,
1764808583.845251,,,,,,,0.0019779205322265625,-0.008882224559783936,0.022963883355259895,0.0717279314994812,-0.02295379526913166,0.19918256998062134
1764808583.851905,-0.22366671656668186,0.06090776542723179,-0.18059508861396462,-0.08479209244251251,0.09398912638425827,-0.1400354653596878,,,,,,
1764808583.855281,,,,,,,0.004278779029846191,-0.025205135345458984,0.01861274428665638,0.056314095854759216,-0.024231314659118652,0.19044233858585358
1764808583.861958,-0.2550660634368658,0.01635141534209251,-0.12827683582305907,-0.10241901874542236,0.10010454058647156,-0.14880499243736267,,,,,,
1764808583.865311,,,,,,,0.0025727152824401855,-0.023300230503082275,0.017844438552856445,0.03511536121368408,-0.024969542399048805,0.18500782549381256
1764808583.87201,-0.2580214061111212,-0.05380699351131916,-0.05297638790607452,-0.11360912024974823,0.08639620989561081,-0.15907788276672363,,,,,,
1764808583.875341,,,,,,,0.0038111209869384766,-0.011857867240905762,0.015504359267652035,0.0404033362865448,-0.0329185426235199,0.19050006568431854
1764808583.882062,-0.21689181560426948,-0.05674830766022205,-0.08563592743780464,-0.11615563184022903,0.06167116016149521,-0.16355785727500916,,,,,,
1764808583.885372,,,,,,,0.0013181567192077637,-0.012768030166625977,0.01628100872039795,0.03643188998103142,-0.03858255594968796,0.18422505259513855
1764808583.892114,-0.11286533167958258,-0.04283025694489479,-0.14431724898722023,-0.10790396481752396,0.03238820284605026,-0.15734896063804626,,,,,,
1764808583.895402,,,,,,,-0.0018594861030578613,-0.020987510681152344,0.01985633373260498,0.016723699867725372,-0.04384416341781616,0.17434418201446533
1764808583.902166,-0.029024726693332194,-0.018986440020799637,-0.15716511318776755,-0.10194434225559235,0.0025626637507230043,-0.14984816312789917,,,,,,
1764808583.905432,,,,,,,-0.004939079284667969,-0.03220629692077637,0.022844672203063965,-0.022004026919603348,-0.04316186159849167,0.1729380488395691
1764808583.91222,0.015252514189481734,-0.002605214062333107,-0.13318802527282386,-0.09142295271158218,-0.02742735855281353,-0.1451149731874466,,,,,,
1764808583.915462,,,,,,,-0.00594329833984375,-0.028880536556243896,0.02338409423828125,-0.040204066783189774,-0.040849968791007996,0.17107756435871124
1764808583.922271,-0.004461363323032856,-0.024806524476408957,-0.1243804129064083,-0.0803103819489479,-0.05516471341252327,-0.14175966382026672,,,,,,
1764808583.925492,,,,,,,-0.00711899995803833,-0.01940685510635376,0.022456886246800423,-0.045261211693286896,-0.035802215337753296,0.16531820595264435
1764808583.932323,-0.057873220036923884,-0.016541384956240652,-0.09237082518339157,-0.07538419961929321,-0.07230758666992188,-0.13836118578910828,,,,,,
1764808583.935522,,,,,,,-0.007868826389312744,-0.012947022914886475,0.01795494556427002,-0.04021505266427994,-0.03141572326421738,0.16505083441734314
1764808583.942376,-0.13367635677903889,-0.01731178480684757,-0.08758245839569717,-0.07131435722112656,-0.0709962397813797,-0.1380397379398346,,,,,,
1764808583.945552,,,,,,,-0.004643559455871582,-0.01779574155807495,0.01606142520904541,-0.03502605855464935,-0.029422348365187645,0.15392327308654785
1764808583.952428,-0.2133855610489845,-0.019164134675264358,-0.09868954334352165,-0.07075292617082596,-0.06226535513997078,-0.1402035504579544,,,,,,
1764808583.955582,,,,,,,-0.0020543932914733887,-0.016656428575515747,0.014273881912231445,-0.04083840548992157,-0.026612181216478348,0.14235210418701172
1764808583.962481,-0.23565438374131917,-0.023038930281996727,-0.07553546224925667,-0.07277160882949829,-0.052460927516222,-0.1434883028268814,,,,,,
1764808583.965612,,,,,,,-0.0006729960441589355,-0.0035410821437835693,0.011830687522888184,-0.031448688358068466,-0.02554265409708023,0.1488058716058731
1764808583.972533,-0.2433525370284915,0.014654548296332358,-0.059658642148971555,-0.07401769608259201,-0.03974965959787369,-0.14256630837917328,,,,,,
1764808583.975641,,,,,,,0.0023230314254760742,0.00022110342979431152,0.004505515098571777,-0.020674871280789375,-0.02163260243833065,0.15556098520755768
1764808583.982585,-0.20857523815780876,0.044696635338664054,-0.11075400208141654,-0.07753442972898483,-0.028293250128626823,-0.13964270055294037,,,,,,
1764808583.985672,,,,,,,0.004211306571960449,-0.009945094585418701,0.003804204985499382,-0.020638007670640945,-0.02073218673467636,0.1473609209060669
1764808583.992637,-0.12022417000979184,0.046097734308242794,-0.09202592073585837,-0.08023381233215332,-0.025339804589748383,-0.13338319957256317,,,,,,
1764808583.995702,,,,,,,0.004712224006652832,-0.01765647530555725,0.005947114899754524,-0.02547644078731537,-0.016132907941937447,0.1421736180782318
1764808584.002691,-0.0723208475843072,0.040562896534800524,-0.05682725464794784,-0.07743863016366959,-0.03704720735549927,-0.13392460346221924,,,,,,
1764808584.005732,,,,,,,0.008668780326843262,-0.015363305807113647,0.005883930251002312,-0.03850408270955086,-0.014039129950106144,0.1390037089586258
1764808584.012742,-0.02782324194908142,0.08572364225387573,-0.0290740457277745,-0.07404070347547531,-0.05784117057919502,-0.13545511662960052,,,,,,
1764808584.015762,,,,,,,0.01032930612564087,-0.011594653129577637,0.008064867928624153,-0.06867636740207672,-0.011469179764389992,0.13043685257434845
1764808584.022794,-0.01624298653155565,0.13234978435039518,0.002949497455358505,-0.0664055123925209,-0.08063196390867233,-0.14098627865314484,,,,,,
1764808584.025793,,,,,,,0.011045336723327637,-0.014745861291885376,0.007405517622828484,-0.09701409190893173,-0.004369458183646202,0.12968865036964417
1764808584.032847,-0.01492372062653303,0.13121990353763102,0.004192117927595973,-0.05619601905345917,-0.09875185042619705,-0.13682988286018372,,,,,,
1764808584.035823,,,,,,,0.010480165481567383,-0.020769119262695312,0.009099841117858887,-0.11796464771032333,0.00028761127032339573,0.12048635631799698
1764808584.042899,-0.008666413797438145,0.15541794072687626,0.0038391032388433812,-0.04494449496269226,-0.10916329175233841,-0.12959527969360352,,,,,,
1764808584.045853,,,,,,,0.00892573595046997,-0.010701119899749756,0.008809089660644531,-0.12456671893596649,0.006253357976675034,0.10869727283716202
1764808584.052951,-0.019067396302521227,0.1572936714708805,-0.005067804783582687,-0.030224140733480453,-0.11369705945253372,-0.12113494426012039,,,,,,
1764808584.055883,,,,,,,0.010030865669250488,0.0058724284172058105,0.0039871931076049805,-0.09957002848386765,0.012379961088299751,0.11279747635126114
1764808584.063004,-0.07086100416481494,0.14319734157919883,-0.0029576807618141173,-0.019471975043416023,-0.10105423629283905,-0.11620298773050308,,,,,,
1764808584.065913,,,,,,,0.009406805038452148,0.0077648162841796875,-0.002042653039097786,-0.06635540723800659,0.02007037028670311,0.1104760691523552
1764808584.073056,-0.10994184544831513,0.10180383943915366,5.501812286674976e-05,-0.01836303621530533,-0.07767035067081451,-0.11439497023820877,,,,,,
1764808584.075943,,,,,,,0.008161306381225586,0.00387534499168396,-0.005908012390136719,-0.04450229927897453,0.024063248187303543,0.1009741723537445
1764808584.083108,-0.12035510291308164,0.06190905142426491,0.04737659513764083,-0.019925065338611603,-0.05263923853635788,-0.11112530529499054,,,,,,
1764808584.085973,,,,,,,0.004709899425506592,0.0043107569217681885,-0.0065633077174425125,-0.010940659791231155,0.03408285975456238,0.10479361563920975
1764808584.093162,-0.12861147460490466,0.018673136287927626,0.09655132573843002,-0.02025982365012169,-0.027099521830677986,-0.1093287393450737,,,,,,
1764808584.096003,,,,,,,0.0017421841621398926,0.009214699268341064,-0.011179568246006966,0.03748626261949539,0.04853077605366707,0.10836571455001831
1764808584.103213,-0.12163403680771588,-0.01841536213457584,0.04541026350073516,-0.016324084252119064,0.005447277799248695,-0.10982110351324081,,,,,,
1764808584.106033,,,,,,,-0.00033736228942871094,0.007859289646148682,-0.016008853912353516,0.08756256848573685,0.05387760326266289,0.10808069258928299
1764808584.113265,-0.12282616920173167,-0.03407178094983101,0.030648784231208263,-0.014215127564966679,0.03896741941571236,-0.10669775307178497,,,,,,
1764808584.116063,,,,,,,-0.0014976859092712402,-0.0030152499675750732,-0.019477607682347298,0.10860420763492584,0.058870233595371246,0.10203052312135696
1764808584.123318,-0.09740677352398633,-0.04875146368741989,0.07659925555586815,-0.01606694608926773,0.06353557109832764,-0.1073012724518776,,,,,,
1764808584.126093,,,,,,,-0.003641486167907715,-0.002152949571609497,-0.0157625675201416,0.1293838918209076,0.0691596195101738,0.11228547990322113
1764808584.13337,-0.07978782246410847,-0.11040507904589175,0.10166819382812828,-0.01564643159508705,0.08558228611946106,-0.10751965641975403,,,,,,
1764808584.136123,,,,,,,-0.007981300354003906,0.00437396764755249,-0.015838265419006348,0.15077334642410278,0.07092849165201187,0.1321428120136261
1764808584.143422,-0.07207242578119039,-0.13440554783642292,0.04922025024294853,-0.013869509100914001,0.11355375498533249,-0.10871405899524689,,,,,,
1764808584.146153,,,,,,,-0.008616268634796143,-0.0023811161518096924,-0.023371100425720215,0.1693902611732483,0.0726182609796524,0.1288924217224121
1764808584.153475,-0.0652817427277565,-0.15030220514833925,0.023269816428422928,-0.017513513565063477,0.14084981381893158,-0.10622160136699677,,,,,,
1764808584.156183,,,,,,,-0.00941377878189087,-0.01813557744026184,-0.018824933096766472,0.1609072983264923,0.07749717682600021,0.1287832409143448
1764808584.163527,-0.05459960519373416,-0.17763094157874584,0.07720949640870094,-0.02358371764421463,0.15903012454509735,-0.10895643383264542,,,,,,
1764808584.166214,,,,,,,-0.013478696346282959,-0.013606339693069458,-0.013822315260767937,0.16575218737125397,0.07981625944375992,0.14830593764781952
1764808584.173579,-0.09171996005922556,-0.21167992617487907,0.08929514406509696,-0.02670201286673546,0.17329375445842743,-0.11390484869480133,,,,,,
1764808584.176244,,,,,,,-0.015343785285949707,-0.0010635554790496826,-0.015669703483581543,0.2061225175857544,0.08869390189647675,0.16177727282047272
1764808584.183632,-0.07759031241983175,-0.20104162778258322,0.05230415120031685,-0.029919065535068512,0.18787679076194763,-0.12096334248781204,,,,,,
1764808584.186274,,,,,,,-0.013859450817108154,0.00038763880729675293,-0.02439713664352894,0.24109601974487305,0.09066331386566162,0.17021510004997253
1764808584.193684,-0.039997371606528755,-0.16236147625446318,0.0032242227435111998,-0.03563341125845909,0.2012796849012375,-0.12236762791872025,,,,,,
1764808584.196304,,,,,,,-0.0064133405685424805,-0.01211780309677124,-0.02606201171875,0.2593701183795929,0.0808173418045044,0.17242339253425598
1764808584.203736,0.018277707229554654,-0.1437082137107849,0.017480711632966994,-0.04509048908948898,0.21087439358234406,-0.12362305074930191,,,,,,
1764808584.206334,,,,,,,-0.0023017525672912598,-0.014255523681640625,-0.02086007595062256,0.2730540931224823,0.07659303396940231,0.17959940433502197
1764808584.213789,0.04973667533248663,-0.1523047771424055,0.06593180413432419,-0.0517694316804409,0.2123122364282608,-0.1269192397594452,,,,,,
1764808584.216364,,,,,,,-0.0026259422302246094,-0.0037342607975006104,-0.019136667251586914,0.30249160528182983,0.07752940058708191,0.20003117620944977
1764808584.223841,0.060008770760893816,-0.13684241959452628,0.04129186839647591,-0.05355142056941986,0.2075411081314087,-0.12769995629787445,,,,,,
1764808584.226394,,,,,,,-0.004525899887084961,-0.0019028782844543457,-0.021061062812805176,0.344669908285141,0.07871051132678986,0.20175065100193024
1764808584.233893,0.06911971345543862,-0.0934276407599449,0.058736266607046124,-0.05930650979280472,0.20000168681144714,-0.13056471943855286,,,,,,
1764808584.236424,,,,,,,-0.0055661797523498535,-0.00816461443901062,-0.018290283158421516,0.3318862020969391,0.07853767275810242,0.1931731402873993
1764808584.243946,0.0615127455830574,-0.08495265788137912,0.09007478666808455,-0.06558939069509506,0.19185025990009308,-0.13733135163784027,,,,,,
1764808584.246454,,,,,,,-0.00033974647521972656,-0.01044231653213501,-0.01310575008392334,0.296502023935318,0.07270587980747223,0.20757438242435455
1764808584.253998,0.015100830759108065,-0.07663491139113902,0.08765614468641579,-0.07143475860357285,0.18658119440078735,-0.1413748413324356,,,,,,
1764808584.256484,,,,,,,0.008268892765045166,-0.022649794816970825,-0.009727835655212402,0.26770153641700745,0.06448949873447418,0.2127867341041565
1764808584.26405,0.01902121907323599,-0.040622517767548556,0.04431852274127304,-0.07519087195396423,0.1811755746603012,-0.14616894721984863,,,,,,
1764808584.266514,,,,,,,0.007781386375427246,-0.020024478435516357,-0.007885575294494629,0.23091064393520355,0.056022245436906815,0.21300344169139862
1764808584.274103,0.029539690478146075,-0.015004676908254622,0.011507993898913264,-0.07753365486860275,0.17350779473781586,-0.1500648856163025,,,,,,
1764808584.276544,,,,,,,0.008424878120422363,-0.009517133235931396,-0.007791278883814812,0.20046964287757874,0.04595975950360298,0.2266950160264969
1764808584.284155,0.03277618818134069,0.022984569746255873,-0.013854337829351424,-0.07885138690471649,0.15949584543704987,-0.15242817997932434,,,,,,
1764808584.286574,,,,,,,0.013234376907348633,-0.014396876096725464,-0.007469178177416325,0.17322693765163422,0.034854110330343246,0.23112459480762482
1764808584.294207,0.045184418855607505,0.025664018088579175,0.003176218883320689,-0.08653386682271957,0.12999925017356873,-0.15319721400737762,,,,,,
1764808584.296604,,,,,,,0.01472008228302002,-0.01870247721672058,-0.004259107634425163,0.14880043268203735,0.03588848188519478,0.2294100522994995
1764808584.30426,0.07997954564392566,0.08099135303497314,0.04178746989369392,-0.09515851736068726,0.0918036475777626,-0.15648221969604492,,,,,,
1764808584.306635,,,,,,,0.02018040418624878,-0.012023359537124634,-0.0009530792012810707,0.15112458169460297,0.03413932025432587,0.24218802154064178
1764808584.314312,0.08089432240128516,0.16828852821588516,0.06075637425780296,-0.09740053862333298,0.050768010318279266,-0.16057346761226654,,,,,,
1764808584.316665,,,,,,,0.03154522180557251,-0.0065400004386901855,-0.004005195572972298,0.1860000044107437,0.024029424414038658,0.2530984580516815
1764808584.324364,0.07552139719128609,0.26321488310098645,0.03245499340295791,-0.0914827287197113,0.024507908150553703,-0.15765464305877686,,,,,,
1764808584.326695,,,,,,,0.03782397508621216,-0.005357921123504639,0.0007301559671759605,0.22697573900222778,0.01230752281844616,0.25010326504707336
1764808584.334417,0.04897241296172142,0.2818558706849813,0.0009948562562465666,-0.08107824623584747,0.012550744228065014,-0.15085791051387787,,,,,,
1764808584.336725,,,,,,,0.033302485942840576,-0.007468819618225098,0.007119535468518734,0.2654733657836914,0.0037617050111293793,0.24577324092388153
1764808584.344469,-0.031707682166993614,0.2432277416050434,0.01848608928322792,-0.06699864566326141,0.00888437032699585,-0.14224685728549957,,,,,,
1764808584.346755,,,,,,,0.02332407236099243,-0.009565114974975586,0.0074874162673950195,0.32049721479415894,0.011724290437996387,0.23058955371379852
1764808584.354521,-0.15191519330292938,0.1918716483771801,0.047968204355239866,-0.05452948436141014,-0.0005577834090217948,-0.13853241503238678,,,,,,
1764808584.356785,,,,,,,0.010366439819335938,-0.005143195390701294,0.006282329559326172,0.3761245310306549,0.024210520088672638,0.2142566591501236
1764808584.364574,-0.22572043422609567,0.10478197846710681,0.0619920535326004,-0.044214796274900436,-0.005496082827448845,-0.1361108124256134,,,,,,
1764808584.366815,,,,,,,-0.002878725528717041,0.00516122579574585,0.004155279137194157,0.42256173491477966,0.04882531985640526,0.20939865708351135
1764808584.374626,-0.29052140769958495,0.015143793118000029,0.07588840387277304,-0.03555719181895256,0.00039661023765802383,-0.13595889508724213,,,,,,
1764808584.376845,,,,,,,-0.010820508003234863,0.004429608583450317,0.0040721893310546875,0.4654410481452942,0.07000011205673218,0.2063448131084442
1764808584.384678,-0.3459621398925781,-0.059282210052013395,0.07423654501251876,-0.03412467986345291,0.015000587329268456,-0.1307084709405899,,,,,,
1764808584.386875,,,,,,,-0.013313114643096924,-0.009751498699188232,0.005864143371582031,0.49936121702194214,0.08492020517587662,0.19480758905410767
1764808584.394731,-0.3518509056702256,-0.10406944628357886,0.07460713189058005,-0.0327073335647583,0.036005593836307526,-0.12606768310070038,,,,,,
1764808584.396905,,,,,,,-0.013771891593933105,-0.019291728734970093,0.005326509475708008,0.5274292826652527,0.09998703747987747,0.19317826628684998
1764808584.404783,-0.3434776296004653,-0.13957155229747295,0.07529569867663086,-0.02968011610209942,0.06087232753634453,-0.12154269963502884,,,,,,
1764808584.406935,,,,,,,-0.011930704116821289,-0.023501336574554443,0.005395293235778809,0.5445536375045776,0.10840635746717453,0.18852566182613373
1764808584.414835,-0.3527057689338922,-0.11980828268527983,0.017138035675138233,-0.028048738837242126,0.0905972570180893,-0.12236705422401428,,,,,,
1764808584.416965,,,,,,,-0.009887754917144775,-0.02558419108390808,0.006685018539428711,0.5267214179039001,0.11558650434017181,0.1922205239534378
1764808584.424888,-0.3737672616630792,-0.08819616984724998,-0.004465747237205505,-0.025173591449856758,0.12982216477394104,-0.12809498608112335,,,,,,
1764808584.426995,,,,,,,-0.007263302803039551,-0.038763612508773804,0.011469006538391113,0.4777863323688507,0.11421630531549454,0.20161204040050507
1764808584.43494,-0.40716070495992895,-0.08884148201346397,-0.008556158355996012,-0.024297943338751793,0.16487255692481995,-0.1393045037984848,,,,,,
1764808584.437025,,,,,,,-0.004269301891326904,-0.06063523888587952,0.012584149837493896,0.4015786349773407,0.11467224359512329,0.19934701919555664
1764808584.444992,-0.40318507932722564,-0.09438391857147216,-0.018902268868684766,-0.025980088859796524,0.18608197569847107,-0.15458066761493683,,,,,,
1764808584.447056,,,,,,,-0.0025756359100341797,-0.07269957661628723,0.01364988088607788,0.3165547251701355,0.120383121073246,0.1924026906490326
1764808584.455045,-0.3361667220652103,-0.09547054476439952,0.04927409932203591,-0.02981051243841648,0.1736159771680832,-0.17133834958076477,,,,,,
1764808584.457086,,,,,,,0.0006379485130310059,-0.06871184706687927,0.009781301021575928,0.231599360704422,0.11774153262376785,0.18965138494968414
1764808584.465097,-0.24257073900103568,-0.044193361991643906,0.13054711884260176,-0.0323607511818409,0.13995341956615448,-0.18533740937709808,,,,,,
1764808584.467116,,,,,,,0.006677389144897461,-0.05346280336380005,0.0064269304275512695,0.16872675716876984,0.1023002564907074,0.1909688413143158
1764808584.475149,-0.14780249728709458,-0.03777764973044395,0.1287023677587509,-0.029346587136387825,0.0994643121957779,-0.19878023862838745,,,,,,
1764808584.477146,,,,,,,0.011369585990905762,-0.05046349763870239,0.0020372867584228516,0.133936807513237,0.08611489832401276,0.19242985546588898
1764808584.485201,-0.07988017692267894,-0.049318449920415876,0.09027933279685675,-0.02970382757484913,0.07231155037879944,-0.206427201628685,,,,,,
1764808584.487176,,,,,,,0.008188605308532715,-0.050444096326828,-0.0013225078582763672,0.10248585045337677,0.0816892609000206,0.20224706828594208
1764808584.495254,-0.01037672484666109,-0.037545594540238376,0.07497771876864134,-0.03374730795621872,0.055440422147512436,-0.21143314242362976,,,,,,
1764808584.497206,,,,,,,0.004907011985778809,-0.04263576865196228,-0.001389145851135254,0.07389841228723526,0.08326425403356552,0.22102129459381104
1764808584.505306,0.007031506071984768,-0.04417348824739456,0.08223631159476935,-0.0372777134180069,0.04977370426058769,-0.21961335837841034,,,,,,
1764808584.507236,,,,,,,0.004157304763793945,-0.04479295015335083,-0.003451109165325761,0.04906134307384491,0.07234662026166916,0.236922487616539
1764808584.515358,-0.0028147651597857475,-0.09491524896919727,0.04715454988479614,-0.04270816594362259,0.04642877355217934,-0.23356087505817413,,,,,,
1764808584.517266,,,,,,,0.003409147262573242,-0.05010727047920227,-0.010209262371063232,0.009426048956811428,0.0654948428273201,0.24095717072486877
1764808584.525411,-0.039166473740339276,-0.14879121606349943,0.07467142929844557,-0.05622326582670212,0.035111673176288605,-0.24853050708770752,,,,,,
1764808584.527296,,,,,,,-0.00018399953842163086,-0.04727068543434143,-0.010172367095947266,-0.032658811658620834,0.06740006804466248,0.2512778043746948
1764808584.535463,-0.062439212778210636,-0.1979021607130766,0.12444229916147886,-0.07032017409801483,0.026067044585943222,-0.26570260524749756,,,,,,
1764808584.537326,,,,,,,-0.005417823791503906,-0.037781476974487305,-0.008742928504943848,-0.05260748416185379,0.06692575663328171,0.2695169746875763
1764808584.545515,-0.05864741927981376,-0.21599252867698668,0.0925648133855313,-0.07653376460075378,0.020893916487693787,-0.28162309527397156,,,,,,
1764808584.547356,,,,,,,-0.010916948318481445,-0.026295065879821777,-0.01067352294921875,-0.05212228745222092,0.06570443511009216,0.2812504172325134
1764808584.555568,-0.014663023863732813,-0.22646716094017028,0.015096958301588892,-0.0774962306022644,0.017323415726423264,-0.29371652007102966,,,,,,
1764808584.557386,,,,,,,-0.014053165912628174,-0.015262812376022339,-0.013021349906921387,-0.04245634377002716,0.06243061274290085,0.2880052626132965
1764808584.56562,0.05375029488801956,-0.20412498075067995,-0.015199980284646152,-0.0820942372083664,0.008754940703511238,-0.29763832688331604,,,,,,
1764808584.567416,,,,,,,-0.017317652702331543,-0.012505829334259033,-0.012785553932189941,-0.037366848438978195,0.060475584119558334,0.29676616191864014
1764808584.575672,0.1421101308643818,-0.21238778218328952,0.0007142857491970061,-0.08178132027387619,-0.0046679237857460976,-0.2939245402812958,,,,,,
1764808584.577446,,,,,,,-0.01837533712387085,-0.010007888078689575,-0.013887763023376465,-0.028637005016207695,0.06111980229616165,0.3075903356075287
1764808584.585725,0.19316081140488384,-0.23384090457856654,-0.0006687661070376635,-0.08354725688695908,-0.022727351635694504,-0.2949024438858032,,,,,,
1764808584.587477,,,,,,,-0.018245995044708252,-0.00241243839263916,-0.01963484287261963,-0.021182745695114136,0.05631040036678314,0.3032185435295105
1764808584.595777,0.22759996436238286,-0.2799433150619268,0.014907646274566649,-0.08647487312555313,-0.04917414113879204,-0.2902112901210785,,,,,,
1764808584.597507,,,,,,,-0.022593915462493896,0.010933667421340942,-0.021748900413513184,-0.011847833171486855,0.04884849116206169,0.3028084337711334
1764808584.605829,0.28444501039534803,-0.30899931367635725,0.010670958552882075,-0.08596737682819366,-0.07091838121414185,-0.2820887565612793,,,,,,
1764808584.607537,,,,,,,-0.027468562126159668,0.01755678653717041,-0.021329164505004883,-0.002464470686390996,0.045012738555669785,0.30322402715682983
1764808584.615882,0.27594898472875357,-0.32999007925689217,-0.017439941231161354,-0.08253509551286697,-0.08501768857240677,-0.27445295453071594,,,,,,
1764808584.617567,,,,,,,-0.03338336944580078,0.017636895179748535,-0.016819357872009277,-0.010629190132021904,0.04425879940390587,0.29331520199775696
1764808584.625934,0.2657575533211231,-0.3600876958787441,-0.05882292197719216,-0.07861949503421783,-0.09108399599790573,-0.2729640603065491,,,,,,
1764808584.627597,,,,,,,-0.038613080978393555,0.020213574171066284,-0.013217806816101074,-0.02707657776772976,0.04915235564112663,0.28397807478904724
1764808584.635986,0.2721747268870473,-0.3385650153785944,-0.09065583795905113,-0.06983745843172073,-0.09830649197101593,-0.2662196159362793,,,,,,
1764808584.637627,,,,,,,-0.03910320997238159,0.02259540557861328,-0.009282588958740234,-0.03508869931101799,0.054043520241975784,0.2756229341030121
1764808584.646039,0.29704408746659755,-0.2530225749105215,-0.11696407223530113,-0.058238863945007324,-0.10016223788261414,-0.2524453401565552,,,,,,
1764808584.647657,,,,,,,-0.03638511896133423,0.03546714782714844,-0.009256482124328613,-0.019433019682765007,0.060535773634910583,0.2603738009929657
1764808584.656091,0.33680151283740994,-0.15817629952430723,-0.1451462106246501,-0.04057358205318451,-0.10636980086565018,-0.22703289985656738,,,,,,
1764808584.657687,,,,,,,-0.03084474802017212,0.054099828004837036,-0.008474349975585938,0.010167749598622322,0.06537073850631714,0.23326683044433594
1764808584.666143,0.4062637561202049,-0.08468553137779235,-0.153698861849308,-0.01749468594789505,-0.1128666028380394,-0.19883964955806732,,,,,,
1764808584.667717,,,,,,,-0.02837008237838745,0.07464474439620972,-0.008565187454223633,0.044955793768167496,0.06281490623950958,0.20561663806438446
1764808584.676196,0.425057303917408,-0.038424715462327,-0.15518113629631697,0.007853279821574688,-0.10546887665987015,-0.1708197295665741,,,,,,
1764808584.677747,,,,,,,-0.02241802215576172,0.08558192849159241,-0.009988545440137386,0.07927834987640381,0.056993767619132996,0.16356398165225983
1764808584.686248,0.4273486297249794,-0.0552647911041975,-0.1759024372857064,0.024311941117048264,-0.0895809680223465,-0.1496606022119522,,,,,,
1764808584.687777,,,,,,,-0.02208578586578369,0.08912616968154907,-0.008799076080322266,0.09578953683376312,0.059093672782182693,0.1195540502667427
1764808584.6963,0.4470443870589137,-0.06114508131444454,-0.18320201970934866,0.04095243662595749,-0.07439801841974258,-0.12811003625392914,,,,,,
1764808584.697807,,,,,,,-0.028806090354919434,0.09158164262771606,-0.006208659149706364,0.10711755603551865,0.07328245788812637,0.08633538335561752
1764808584.706352,0.4831251697435975,-0.08885024984180927,-0.22329788325428962,0.06222635507583618,-0.06379415839910507,-0.1035616472363472,,,,,,
1764808584.707837,,,,,,,-0.0326845645904541,0.09544843435287476,-0.005997300148010254,0.13022787868976593,0.08372471481561661,0.06679876148700714
1764808584.716405,0.5263982020199298,-0.09818389537632465,-0.28572357896380124,0.0841691792011261,-0.052557460963726044,-0.08504755049943924,,,,,,
1764808584.717867,,,,,,,-0.033194899559020996,0.09209775924682617,-0.00451827235519886,0.15335717797279358,0.0911506712436676,0.04460344463586807
1764808584.726457,0.5564204153180122,-0.07876023298203945,-0.32964469988532363,0.10217268019914627,-0.039864037185907364,-0.07142361998558044,,,,,,
1764808584.727898,,,,,,,-0.03206509351730347,0.08740392327308655,-0.001060127280652523,0.1846209317445755,0.09639949351549149,0.027782849967479706
1764808584.736509,0.5961427693754434,-0.09102116414010525,-0.35823593053221703,0.11142218112945557,-0.019102154299616814,-0.07256291061639786,,,,,,
1764808584.737928,,,,,,,-0.030776619911193848,0.08584263920783997,0.0026545533910393715,0.20795580744743347,0.10596370697021484,0.02631464973092079
1764808584.746562,0.627488632492721,-0.14698328985869882,-0.4402151255607605,0.11830005794763565,0.005783754400908947,-0.07825781404972076,,,,,,
1764808584.747958,,,,,,,-0.03135329484939575,0.07463008165359497,0.006748676300048828,0.22566476464271545,0.11941319704055786,0.03177519515156746
1764808584.756614,0.6752753428012133,-0.16681670209765434,-0.4865512717347592,0.12395638972520828,0.02894776500761509,-0.08678025007247925,,,,,,
1764808584.757988,,,,,,,-0.03532034158706665,0.0646485984325409,0.006447434425354004,0.22514411807060242,0.135184183716774,0.027292829006910324
1764808584.766666,0.7251482117339968,-0.1739765107244253,-0.48642969118170437,0.1281234323978424,0.04389049485325813,-0.0895395502448082,,,,,,
1764808584.768018,,,,,,,-0.038278818130493164,0.06924992799758911,0.00808024313300848,0.24216952919960022,0.14716334640979767,0.03084828332066536
1764808584.776719,0.7754305382505059,-0.16830547935068607,-0.4915630354821682,0.1293792724609375,0.047687649726867676,-0.09176883846521378,,,,,,
1764808584.778048,,,,,,,-0.03766828775405884,0.08156755566596985,0.001069188117980957,0.2761317491531372,0.15716645121574402,0.03547951951622963
1764808584.786771,0.8522939977005124,-0.1046522146075964,-0.557588290053606,0.1405658721923828,0.03941933438181877,-0.08068875968456268,,,,,,
1764808584.788078,,,,,,,-0.04044097661972046,0.10698717832565308,-0.004136085510253906,0.33159932494163513,0.16825585067272186,0.035363804548978806
1764808584.796823,0.9824921569749713,-0.13321253865957258,-0.5790110173106193,0.1652480512857437,0.011398169212043285,-0.05335123836994171,,,,,,
1764808584.798108,,,,,,,-0.044876694679260254,0.1263972818851471,-0.006572009064257145,0.39830005168914795,0.1704031527042389,0.015860944986343384
1764808584.806876,1.1086781579986213,-0.2158124959349632,-0.5580209093172103,0.1879006326198578,-0.027247227728366852,-0.014551378786563873,,,,,,
1764808584.808138,,,,,,,-0.050671398639678955,0.1377529501914978,-0.007245303131639957,0.4586637020111084,0.17437338829040527,-0.010407410562038422
1764808584.816929,1.1735428443580864,-0.2517062316149473,-0.5425999066930264,0.21077649295330048,-0.06004508212208748,0.025385195389389992,,,,,,
1764808584.818168,,,,,,,-0.05792224407196045,0.14349782466888428,-0.002064465545117855,0.49802178144454956,0.18402042984962463,-0.05631710961461067
1764808584.82698,1.174905364882946,-0.2658458161264658,-0.5380618248719722,0.2353992760181427,-0.10160716623067856,0.06588894873857498,,,,,,
1764808584.828198,,,,,,,-0.06543880701065063,0.15277299284934998,-0.003737926483154297,0.5267456769943237,0.19644621014595032,-0.10128332674503326
1764808584.837032,1.1739166461065411,-0.3055740154027939,-0.4878723642706871,0.25584113597869873,-0.1532382369041443,0.10156870633363724,,,,,,
1764808584.838228,,,,,,,-0.0689382553100586,0.1675214171409607,-0.011282564140856266,0.5643537640571594,0.20885920524597168,-0.1447754055261612
1764808584.847085,1.1775631859153508,-0.3133382196635008,-0.4724948354620486,0.2700296640396118,-0.1991063952445984,0.14238803088665009,,,,,,
1764808584.848258,,,,,,,-0.06683653593063354,0.18666109442710876,-0.019246459007263184,0.6020363569259644,0.21292664110660553,-0.18451595306396484
1764808584.857137,1.2441551344588397,-0.27107553347349167,-0.518585518974997,0.28309059143066406,-0.24087540805339813,0.19253508746623993,,,,,,
1764808584.858288,,,,,,,-0.06156820058822632,0.20817849040031433,-0.030772089958190918,0.6562649607658386,0.19879324734210968,-0.22402235865592957
1764808584.867189,1.3358464529454708,-0.2799363007992506,-0.6075356855273246,0.2955363690853119,-0.2879537343978882,0.2545909583568573,,,,,,
1764808584.868318,,,,,,,-0.05258345603942871,0.22178900241851807,-0.039038777351379395,0.7627566456794739,0.1740753948688507,-0.26903456449508667
1764808584.877242,1.493483823287487,-0.26160510981678964,-0.6452186427116393,0.3031356930732727,-0.35098305344581604,0.3350679576396942,,,,,,
1764808584.878349,,,,,,,-0.05292564630508423,0.24542158842086792,-0.05140995979309082,0.9085567593574524,0.14227618277072906,-0.33045265078544617
1764808584.887294,1.7177552277490495,-0.17528057906031608,-0.6359597429137677,0.3214055299758911,-0.45374563336372375,0.4291236400604248,,,,,,
1764808584.888379,,,,,,,-0.05025261640548706,0.29158923029899597,-0.07523906230926514,1.0746614933013916,0.10183314234018326,-0.3857973515987396
1764808584.897346,1.868806789959967,-0.11632745483219623,-0.6995955450654029,0.36061495542526245,-0.559261679649353,0.5267932415008545,,,,,,
1764808584.898409,,,,,,,-0.03454172611236572,0.31342238187789917,-0.07337772846221924,1.222282886505127,0.036884505301713943,-0.4324181079864502
1764808584.907399,1.9353981539815663,0.06078852296173572,-0.812083275604248,0.4235132932662964,-0.6078155636787415,0.6209482550621033,,,,,,
1764808584.908439,,,,,,,-0.010547637939453125,0.28984013199806213,-0.045870184898376465,1.2550750970840454,-0.04965731129050255,-0.5132666230201721
1764808584.917451,1.9509923212155698,0.4261398384571075,-0.9863339270949363,0.5082995295524597,-0.5725675821304321,0.7070160508155823,,,,,,
1764808584.918469,,,,,,,0.007254183292388916,0.2592366933822632,-0.0198974609375,1.1496437788009644,-0.11849869787693024,-0.634990394115448
1764808584.927503,1.862835022073984,0.6856722336530685,-1.0862965225815773,0.6083850860595703,-0.4848282039165497,0.7788477540016174,,,,,,
1764808584.928499,,,,,,,0.01370537281036377,0.23147347569465637,-0.004891457036137581,0.9367347955703735,-0.17442640662193298,-0.7602035403251648
1764808584.937556,1.7036282104581593,0.667875295677781,-1.0573135892033576,0.6883835196495056,-0.38454633951187134,0.8506249785423279,,,,,,
1764808584.938529,,,,,,,0.009034931659698486,0.2137531340122223,4.029273986816406e-05,0.685417890548706,-0.20788022875785828,-0.9120767116546631
1764808584.947608,1.6166583675354718,0.5336918661594391,-0.8204688266336917,0.7245707511901855,-0.3001655340194702,0.9218515753746033,,,,,,
1764808584.948559,,,,,,,-0.0027523040771484375,0.22250178456306458,-0.017684224992990494,0.41253331303596497,-0.1978212147951126,-1.0787004232406616
1764808584.95766,1.5205840116590261,0.33687457807362076,-0.6044517480373383,0.7371177077293396,-0.2186560183763504,0.9675503373146057,,,,,,
1764808584.958589,,,,,,,-0.01386958360671997,0.2500632107257843,-0.03640473261475563,0.08399457484483719,-0.1661335825920105,-1.2573168277740479
1764808584.967713,1.517053499445319,0.27364216909110545,-0.6225216577351093,0.7589479088783264,-0.12305639684200287,1.0097081661224365,,,,,,
1764808584.968619,,,,,,,-0.0086287260055542,0.2832249402999878,-0.04923480749130249,-0.20895226299762726,-0.13318362832069397,-1.4310113191604614
1764808584.977765,1.7834636714562773,0.41998190034925936,-0.7978010677516459,0.807925283908844,-0.04182731732726097,1.0682666301727295,,,,,,
1764808584.978649,,,,,,,0.006184101104736328,0.30711641907691956,-0.07232058048248291,-0.4281221628189087,-0.1156267449259758,-1.5741437673568726
1764808584.987817,2.207163715545833,0.5655979935079812,-0.9668792850404977,0.8616364002227783,0.0054440987296402454,1.1628727912902832,,,,,,
1764808584.988679,,,,,,,0.019447743892669678,0.3319928050041199,-0.09881311655044556,-0.5880935192108154,-0.1234082356095314,-1.7007396221160889
1764808584.997869,2.701988967694342,0.6326338864266872,-1.063708258676529,0.914794921875,0.010779475793242455,1.2915644645690918,,,,,,
1764808584.998709,,,,,,,0.026177167892456055,0.3428208529949188,-0.10537469387054443,-0.7151877880096436,-0.13109090924263,-1.8812007904052734
1764808585.007922,3.1275743871390818,0.5903180087447166,-1.0459949073314667,0.9642959833145142,-0.023617789149284363,1.4420982599258423,,,,,,
1764808585.008739,,,,,,,0.0288618803024292,0.35519951581954956,-0.09467506408691406,-0.8355247378349304,-0.1319098323583603,-2.0630977153778076
1764808585.017974,3.3192823693871496,0.6057283438444138,-0.9750117380917072,1.0331465005874634,-0.06875836849212646,1.5717018842697144,,,,,,
1764808585.01877,,,,,,,0.0329626202583313,0.390850305557251,-0.0688333511352539,-1.0332833528518677,-0.13957014679908752,-2.2780730724334717
1764808585.028026,3.276110459397733,0.7495978855967521,-1.1535463505119086,1.1371654272079468,-0.09163709729909897,1.6707369089126587,,,,,,
1764808585.0288,,,,,,,0.03056734800338745,0.4372543692588806,-0.03408372402191162,-1.314488410949707,-0.13788384199142456,-2.5137808322906494
1764808585.038079,3.1389550283312797,1.0316109926700592,-1.538376273459196,1.2808891534805298,-0.07636622339487076,1.7641115188598633,,,,,,
1764808585.03883,,,,,,,0.02770400047302246,0.47633951902389526,0.004424453247338533,-1.5790550708770752,-0.07681436836719513,-2.710283041000366
1764808585.048131,3.1186782562389967,1.3550877445101737,-1.9279262106657027,1.4508615732192993,-0.03607925400137901,1.9003907442092896,,,,,,
1764808585.04886,,,,,,,0.02722346782684326,0.5040613412857056,0.037226080894470215,-1.70391845703125,0.02507365122437477,-2.8625125885009766
1764808585.058183,3.24534356521219,1.6078262417823075,-2.10018364251256,1.6131749153137207,0.020711325109004974,2.0753650665283203,,,,,,
1764808585.05889,,,,,,,0.02808135747909546,0.5526943206787109,0.06507742404937744,-1.7330981492996216,0.13050074875354767,-3.039036512374878
1764808585.068236,3.2573157425567505,1.6834376553446053,-2.0725182214736937,1.755100131034851,0.09456194937229156,2.252978801727295,,,,,,
1764808585.06892,,,,,,,0.03207272291183472,0.6168975830078125,0.08210635185241699,-1.6603329181671143,0.25028252601623535,-3.2294631004333496
1764808585.078288,3.090302348843217,1.652434614315629,-2.022697667250037,1.8886542320251465,0.18507027626037598,2.411165237426758,,,,,,
1764808585.07895,,,,,,,0.0492931604385376,0.6609629392623901,0.08191907405853271,-1.4475109577178955,0.37755101919174194,-3.3836679458618164
1764808585.08834,2.84566298687458,1.6236942575216293,-1.9676982490837573,1.9951157569885254,0.29340648651123047,2.541259288787842,,,,,,
1764808585.08898,,,,,,,0.07493084669113159,0.6764343976974487,0.06270242482423782,-1.1865496635437012,0.4895728826522827,-3.5124030113220215
1764808585.098393,2.697629895702004,1.6015274338990448,-1.8613754709154366,2.0650413036346436,0.4126196801662445,2.6564550399780273,,,,,,
1764808585.09901,,,,,,,0.09947073459625244,0.6892449855804443,0.04325711727142334,-1.0107626914978027,0.5883274078369141,-3.645183563232422
1764808585.108445,2.6858909425914286,1.5739678113222122,-1.8336698639966547,2.118975877761841,0.5366014838218689,2.7782540321350098,,,,,,
1764808585.10904,,,,,,,0.13329076766967773,0.6746487021446228,0.04340659826993942,-0.8526002168655396,0.6940498352050781,-3.7812724113464355
1764808585.118497,2.854416202172637,1.6784598669320343,-1.934418641424924,2.170922040939331,0.6508428454399109,2.913226366043091,,,,,,
1764808585.11907,,,,,,,0.17286306619644165,0.6409493684768677,0.08401191234588623,-0.8376500010490417,0.8045263290405273,-3.9327402114868164
1764808585.128549,3.085910251364112,2.0475883628785607,-2.040407511463761,2.2572174072265625,0.7108190059661865,3.072427749633789,,,,,,
1764808585.1291,,,,,,,0.21683752536773682,0.642587423324585,0.1475358009338379,-0.8164536952972412,0.9079650640487671,-4.066152572631836
1764808585.138602,3.2780133704096075,2.4849118586510417,-2.11425936800763,2.3691887855529785,0.7019241452217102,3.2510321140289307,,,,,,
1764808585.13913,,,,,,,0.255376398563385,0.6298145055770874,0.1967717409133911,-0.7303004264831543,0.9868300557136536,-4.145442485809326
1764808585.148654,3.308028569445014,2.7529771043926474,-2.146896293848753,2.479248285293579,0.6605256199836731,3.404827833175659,,,,,,
1764808585.14916,,,,,,,0.2701854705810547,0.6037259101867676,0.2280939668416977,-0.6771008968353271,1.0659853219985962,-4.237386703491211
1764808585.158706,3.122035457712412,2.770821973162889,-2.147719739060849,2.569164276123047,0.6133455038070679,3.4956393241882324,,,,,,
1764808585.15919,,,,,,,0.26815086603164673,0.5709212422370911,0.25157737731933594,-0.6822256445884705,1.1862057447433472,-4.34321928024292
1764808585.168759,2.9036639249444005,2.6579835294902323,-2.150318084990978,2.6534030437469482,0.5721477270126343,3.547257423400879,,,,,,
1764808585.169221,,,,,,,0.27773362398147583,0.5435376763343811,0.26615238189697266,-0.7241799831390381,1.3381438255310059,-4.410470485687256
1764808585.178811,2.924150248134136,2.6733564551889897,-2.1368886945754286,2.732374668121338,0.5419302582740784,3.6196866035461426,,,,,,
1764808585.179251,,,,,,,0.3122710883617401,0.5235089659690857,0.27212798595428467,-0.7383703589439392,1.4656802415847778,-4.457434177398682
1764808585.188864,3.0421114416480064,2.8531635717630386,-2.043191004702449,2.7799885272979736,0.5191349387168884,3.727883815765381,,,,,,
1764808585.189281,,,,,,,0.35175633430480957,0.5143843293190002,0.27869701385498047,-0.804263710975647,1.5726666450500488,-4.527017116546631
1764808585.198916,2.9747639985620973,3.1742893765628337,-1.9385513573154807,2.8265798091888428,0.497970312833786,3.8362326622009277,,,,,,
1764808585.199311,,,,,,,0.3913020193576813,0.5191764235496521,0.3046884536743164,-0.8616377711296082,1.6849819421768188,-4.602609157562256
1764808585.208968,2.7370336853295565,3.5213597699582575,-2.0761796665906904,2.9089200496673584,0.4630536139011383,3.9189229011535645,,,,,,
1764808585.209341,,,,,,,0.42407840490341187,0.5081562399864197,0.3231722116470337,-0.889176070690155,1.8011761903762817,-4.68328857421875
1764808585.21902,2.529294605734944,3.890669175429642,-2.198455508433282,3.019420623779297,0.39841464161872864,3.9924638271331787,,,,,,
1764808585.219371,,,,,,,0.4545723795890808,0.5264049172401428,0.3521376848220825,-0.9697595834732056,1.9404784440994263,-4.767140865325928
1764808585.229074,2.5629835248470303,4.397577079559863,-2.0681524274796246,3.104020357131958,0.33486735820770264,4.107574462890625,,,,,,
1764808585.229401,,,,,,,0.49726220965385437,0.5736713409423828,0.3439202308654785,-0.8992508053779602,2.1123828887939453,-4.800134181976318
1764808585.239125,2.7079712569743393,4.752655422843993,-1.7461773123741149,3.1368982791900635,0.29120150208473206,4.256255626678467,,,,,,
1764808585.239431,,,,,,,0.5502445101737976,0.5720159411430359,0.31956717371940613,-0.719946563243866,2.2117350101470947,-4.832202911376953
1764808585.249177,2.5793472151488066,4.777750993394851,-1.5987947940647602,3.15541934967041,0.29594963788986206,4.381799697875977,,,,,,
1764808585.249461,,,,,,,0.5942870378494263,0.5622311234474182,0.3248930275440216,-0.47552239894866943,2.3019602298736572,-4.8711256980896
1764808585.259229,2.104762202474475,4.662512795104086,-1.6603613156616688,3.1638848781585693,0.33334165811538696,4.453518390655518,,,,,,
1764808585.259491,,,,,,,0.6222612857818604,0.547435998916626,0.33590617775917053,-0.2535218298435211,2.4092187881469727,-4.882745742797852
1764808585.269282,1.5538088203907012,4.634266943828761,-1.634985466864705,3.1706228256225586,0.3971022665500641,4.478125095367432,,,,,,
1764808585.269521,,,,,,,0.6422320604324341,0.5320317149162292,0.34921371936798096,-0.12894773483276367,2.5171761512756348,-4.913006782531738
1764808585.279334,1.1612398276239633,4.786289104637503,-1.637161934120953,3.200589656829834,0.4788178503513336,4.507571697235107,,,,,,
1764808585.279551,,,,,,,0.668788492679596,0.5150803923606873,0.38102537393569946,-0.002423356520012021,2.623760223388672,-4.934845924377441
1764808585.289387,1.0502625016480684,5.03592612876296,-1.6646803479045629,3.2302703857421875,0.5614235401153564,4.563745021820068,,,,,,
1764808585.289581,,,,,,,0.708076000213623,0.46715956926345825,0.3899597227573395,0.21923311054706573,2.7124218940734863,-4.9058966636657715
1764808585.299439,1.0294482616782188,5.266009142112732,-1.6301991093710064,3.250260591506958,0.6310784816741943,4.635229110717773,,,,,,
1764808585.299611,,,,,,,0.7397257685661316,0.4426133632659912,0.4094846248626709,0.3643956482410431,2.791339635848999,-4.94270658493042
1764808585.309491,0.9017214609533548,5.473732439616322,-1.5907786608695984,3.251563310623169,0.6866075992584229,4.709278583526611,,,,,,
1764808585.309642,,,,,,,0.7663268446922302,0.4465627074241638,0.4021449387073517,0.6204134821891785,2.8956458568573,-4.9083333015441895
1764808585.319543,0.7115636307567358,5.585979347136616,-1.4621727392226456,3.2090206146240234,0.7292416095733643,4.770853519439697,,,,,,
1764808585.319672,,,,,,,0.8041386604309082,0.35932475328445435,0.3309309780597687,0.9329894781112671,2.8574461936950684,-4.832336902618408
1764808585.329596,0.34497897407412526,5.327656327730417,-1.1960177110165358,3.1232030391693115,0.7600101828575134,4.767521858215332,,,,,,
1764808585.329702,,,,,,,0.8172030448913574,0.27213412523269653,0.2957242727279663,1.156111717224121,2.789841651916504,-4.817470550537109
1764808585.339648,-0.2469090604662895,4.675286644220352,-0.9018184915870427,3.011493444442749,0.7844659686088562,4.683106422424316,,,,,,
1764808585.339732,,,,,,,0.7951852679252625,0.22668111324310303,0.27329421043395996,1.3782873153686523,2.8131237030029297,-4.7712483406066895
1764808585.3497,-0.6999047571450472,4.094612662133574,-0.7224871758311987,2.9064643383026123,0.8199124932289124,4.5710835456848145,,,,,,
1764808585.349762,,,,,,,0.7830666303634644,0.19569456577301025,0.27153968811035156,1.521903395652771,2.8111939430236816,-4.719066143035889
1764808585.359752,-0.7831909431189298,4.002100967174768,-0.7242956865578889,2.811593770980835,0.8672187328338623,4.486137390136719,,,,,,
1764808585.359792,,,,,,,0.7971107959747314,0.18645364046096802,0.2934396266937256,1.5867198705673218,2.7910401821136475,-4.664448261260986
1764808585.369805,-0.6643675798177718,4.379144766290485,-0.8025462164521217,2.7305538654327393,0.9189609289169312,4.433873176574707,,,,,,
1764808585.369822,,,,,,,0.828863799571991,0.1527576446533203,0.30588412284851074,1.5889984369277954,2.7218337059020996,-4.559732913970947
1764808585.379852,,,,,,,0.8576369881629944,0.05142563581466675,0.29124271869659424,1.5176241397857666,2.5685055255889893,-4.443538665771484
1764808585.379857,-0.6110422323435545,4.826683951129019,-0.9607534956365823,2.660475015640259,0.9453720450401306,4.3815717697143555,,,,,,
1764808585.389882,,,,,,,0.8472092151641846,-0.05756378173828125,0.3080669641494751,1.277783989906311,2.4418246746063232,-4.3810319900512695
1764808585.38991,-0.671971040558815,4.960874687170982,-1.100939088179171,2.6040475368499756,0.8945160508155823,4.28586483001709,,,,,,
1764808585.399912,,,,,,,0.8055758476257324,-0.11338251829147339,0.3283965587615967,1.0655603408813477,2.419077157974243,-4.263698577880859
1764808585.399962,-0.7612193498075008,4.820068332381546,-1.1070888429805636,2.5663485527038574,0.7665830850601196,4.150142669677734,,,,,,
1764808585.409942,,,,,,,0.7660830020904541,-0.13744431734085083,0.3375707268714905,0.818009078502655,2.3871419429779053,-4.172070026397705
1764808585.410014,-0.7620137150555849,4.623782082432508,-1.0580722986161708,2.5518651008605957,0.6027165055274963,4.0022053718566895,,,,,,
1764808585.419971,,,,,,,0.7372010350227356,-0.09766018390655518,0.3457515835762024,0.5853276252746582,2.4078383445739746,-4.0546488761901855
1764808585.420066,-0.6863847658365965,4.615030036178231,-1.0311515584647655,2.526313543319702,0.45074743032455444,3.8725929260253906,,,,,,
1764808585.430002,,,,,,,0.7281270027160645,-0.106364905834198,0.30479443073272705,0.4084235727787018,2.363464593887329,-3.897742509841919
1764808585.43012,-0.6039291854679584,4.783281154993176,-0.9037702101767062,2.4972984790802,0.3233567178249359,3.7577593326568604,,,,,,
1764808585.440032,,,,,,,0.7230295538902283,-0.1742439866065979,0.28080809116363525,0.20769047737121582,2.277103900909424,-3.779921531677246
1764808585.440171,-0.7303828975170851,4.820127661353349,-0.8332688331045209,2.464444875717163,0.20131628215312958,3.628401756286621,,,,,,
1764808585.450063,,,,,,,0.6978514194488525,-0.20371180772781372,0.26077330112457275,0.00821903720498085,2.2660534381866455,-3.6540610790252686
1764808585.450223,-0.9719763159185647,4.616082760101556,-0.777988259909302,2.426008701324463,0.0998169556260109,3.467256784439087,,,,,,
1764808585.460093,,,,,,,0.6671409010887146,-0.1739463210105896,0.23031193017959595,-0.15186969935894012,2.2486743927001953,-3.545773983001709
1764808585.460275,-1.2494874353975056,4.399701524367928,-0.7042078611664474,2.377556085586548,0.013357702642679214,3.303373336791992,,,,,,
1764808585.470123,,,,,,,0.6493934392929077,-0.07936030626296997,0.22474855184555054,-0.2921527028083801,2.240370988845825,-3.4475955963134766
1764808585.470328,-1.3756681757241487,4.300831400293111,-0.6434130545943975,2.324119806289673,-0.028634672984480858,3.1658804416656494,,,,,,
1764808585.480153,,,,,,,0.6421875357627869,-0.02875727415084839,0.21065610647201538,-0.33021432161331177,2.2025771141052246,-3.3355259895324707
1764808585.480381,-1.2661439711660145,4.359107648172975,-0.6859259161531924,2.2799224853515625,-0.023330844938755035,3.0638184547424316,,,,,,
1764808585.490183,,,,,,,0.6331779360771179,-0.02903968095779419,0.22639448940753937,-0.41205334663391113,2.1615827083587646,-3.2228479385375977
1764808585.490433,-1.0580629462659359,4.427111509341001,-0.8163244933705777,2.2361156940460205,0.0008386740228161216,2.990211248397827,,,,,,
1764808585.500213,,,,,,,0.6075776219367981,-0.028222590684890747,0.2303444892168045,-0.48980218172073364,2.1241116523742676,-3.1121747493743896
1764808585.500485,-0.8577057936161756,4.437386235117912,-0.837076262563467,2.2077040672302246,0.013241015374660492,2.926894426345825,,,,,,
1764808585.510243,,,,,,,0.5720617771148682,-0.06915286183357239,0.18806153535842896,-0.5970523953437805,2.0549638271331787,-3.0463593006134033
1764808585.510537,-0.746250328734517,4.320574211639165,-0.9029343438744545,2.180943727493286,-0.00016931153368204832,2.862239122390747,,,,,,
1764808585.520273,,,,,,,0.5364159345626831,-0.10912030935287476,0.17043030261993408,-0.7818981409072876,2.056624174118042,-2.9689688682556152
1764808585.520589,-0.7020259870827198,4.098856875574588,-0.8061626533836126,2.139589309692383,-0.07360491156578064,2.7858214378356934,,,,,,
1764808585.530303,,,,,,,0.5072916746139526,-0.06738856434822083,0.19821342825889587,-0.9771401286125183,2.064166307449341,-2.908876657485962
1764808585.530643,-0.6669546737015247,3.780896841329336,-0.5106897607564926,2.1059811115264893,-0.16907379031181335,2.704200267791748,,,,,,
1764808585.540333,,,,,,,0.4894345998764038,0.0006282031536102295,0.17561101913452148,-0.9723547101020813,2.06221342086792,-2.7902963161468506
1764808585.540694,-0.5647562819868326,3.5384096889585255,-0.4440893366456031,2.072042465209961,-0.2106204330921173,2.632810354232788,,,,,,
1764808585.550363,,,,,,,0.47189581394195557,0.031824856996536255,0.16783654689788818,-0.9839594960212708,2.0117979049682617,-2.747995615005493
1764808585.550746,-0.4722159454554319,3.3700428348094222,-0.5610615921873598,2.0145514011383057,-0.2031664252281189,2.583998680114746,,,,,,
1764808585.560393,,,,,,,0.44361376762390137,0.09344464540481567,0.1646023690700531,-0.9342734217643738,2.0222020149230957,-2.6947898864746094
1764808585.560798,-0.357747270232439,3.2412095341473814,-0.656614481472969,1.9578139781951904,-0.1853722482919693,2.5543434619903564,,,,,,
1764808585.570422,,,,,,,0.4212406277656555,0.10678744316101074,0.1292751133441925,-0.850532591342926,1.993191123008728,-2.6535093784332275
1764808585.570851,-0.25392799931764604,3.1550878324866294,-0.7053308007817715,1.8807111978530884,-0.1584695428609848,2.541882276535034,,,,,,
1764808585.580453,,,,,,,0.41272956132888794,0.14379125833511353,0.13553687930107117,-0.8049115538597107,1.9797227382659912,-2.6570651531219482
1764808585.580903,-0.2012716371461749,3.0231834538161753,-0.5890135020174085,1.80386221408844,-0.15604154765605927,2.5313403606414795,,,,,,
1764808585.590484,,,,,,,0.41731637716293335,0.16579574346542358,0.10810473561286926,-0.7031256556510925,1.90194571018219,-2.6265294551849365
1764808585.590955,-0.01199058978408575,2.9970313599497076,-0.41649975732192396,1.7333579063415527,-0.15961822867393494,2.5196056365966797,,,,,,
1764808585.600514,,,,,,,0.4196215867996216,0.12278139591217041,0.06579136848449707,-0.65040123462677,1.7987871170043945,-2.6009676456451416
1764808585.601008,0.10424684867709874,2.921259202867746,-0.446770027096942,1.6482958793640137,-0.17060282826423645,2.511875629425049,,,,,,
1764808585.610544,,,,,,,0.39428097009658813,0.07046817243099213,0.048992156982421875,-0.6987857222557068,1.7368837594985962,-2.576371669769287
1764808585.61106,0.10942279001027345,2.6058710649371144,-0.33906127446293827,1.5429617166519165,-0.20952120423316956,2.486091375350952,,,,,,
1764808585.620574,,,,,,,0.37004703283309937,0.019568994641304016,0.03308779001235962,-0.739875078201294,1.7028038501739502,-2.4965639114379883
1764808585.621112,-0.01873538786917925,2.308810026335716,-0.11099369258880615,1.42348051071167,-0.2569027543067932,2.426185369491577,,,,,,
1764808585.630604,,,,,,,0.3703904151916504,-0.023600652813911438,-0.001262575387954712,-0.7216742038726807,1.6421535015106201,-2.396780490875244
1764808585.631166,-0.1588268723875284,2.2034102082312104,0.17728329718485475,1.2805523872375488,-0.29382696747779846,2.3190371990203857,,,,,,
1764808585.640634,,,,,,,0.39027541875839233,-0.02188602089881897,-0.07040262222290039,-0.5637351870536804,1.5461846590042114,-2.3007261753082275
1764808585.641217,-0.40656653845906254,2.131649624878168,0.5572619807086885,1.1204659938812256,-0.3300882577896118,2.189364194869995,,,,,,
1764808585.650664,,,,,,,0.4145364761352539,0.004730910062789917,-0.14174795150756836,-0.3138304352760315,1.407175898551941,-2.188524007797241
1764808585.651269,-0.7467787365227937,2.0294553248167038,0.9837900878310203,0.9574445486068726,-0.3472081422805786,2.074869155883789,,,,,,
1764808585.660694,,,,,,,0.4261723756790161,0.003462091088294983,-0.18022951483726501,-0.11811871081590652,1.2545791864395142,-2.0765109062194824
1764808585.661321,-1.0468743205145001,2.0124264486044643,1.2807296920098363,0.808826208114624,-0.3274620771408081,1.9751571416854858,,,,,,
1764808585.670724,,,,,,,0.4205024838447571,-0.056543514132499695,-0.2007480263710022,0.06930401921272278,1.1349773406982422,-1.9225376844406128
1764808585.671374,-1.3137310672491789,2.095444339030981,1.3906265292726456,0.6738492250442505,-0.292344331741333,1.8752681016921997,,,,,,
1764808585.680754,,,,,,,0.4143385887145996,-0.13251876831054688,-0.20087456703186035,0.23172727227210999,0.9941343069076538,-1.76404869556427
1764808585.681426,-1.5988871485233307,2.174379344058037,1.5476820080734788,0.5589141845703125,-0.23417878150939941,1.7518582344055176,,,,,,
1764808585.690784,,,,,,,0.41976702213287354,-0.17886969447135925,-0.19629478454589844,0.37372875213623047,0.8677798509597778,-1.6053581237792969
1764808585.691478,-1.917694154986739,2.2945716576248407,1.4555284789025782,0.4487067461013794,-0.16911935806274414,1.5949207544326782,,,,,,
1764808585.700814,,,,,,,0.433208703994751,-0.22237303853034973,-0.18365240097045898,0.4878787696361542,0.7359200716018677,-1.4153878688812256
1764808585.701531,-2.221473688188195,2.404878536993265,1.3744738513730466,0.344903826713562,-0.10670884698629379,1.4116356372833252,,,,,,
1764808585.710844,,,,,,,0.45238685607910156,-0.2558857798576355,-0.16802209615707397,0.5455958843231201,0.5592923164367676,-1.219386339187622
1764808585.711583,-2.3872753680244085,2.4270354237437246,1.2782818604663013,0.2598469853401184,-0.07163634896278381,1.21184241771698,,,,,,
1764808585.720874,,,,,,,0.455686092376709,-0.3046168088912964,-0.1600574254989624,0.5242202877998352,0.3880510628223419,-0.986270546913147
1764808585.721635,-2.386174713306129,2.4656898563086984,1.1405191111564636,0.18227224051952362,-0.06161953881382942,0.9974331259727478,,,,,,
1764808585.730905,,,,,,,0.4390793442726135,-0.3604477345943451,-0.1390775442123413,0.4316515326499939,0.2462976574897766,-0.7392973303794861
1764808585.731687,-2.276037491416186,2.4615163700163363,1.0985972012281418,0.1134236752986908,-0.05860031396150589,0.7724213004112244,,,,,,
1764808585.740935,,,,,,,0.4236155152320862,-0.40222954750061035,-0.12837430834770203,0.3194083571434021,0.13306137919425964,-0.4616917669773102
1764808585.74174,-2.0790179587565363,2.4732822111338377,1.0552610405877232,0.046969812363386154,-0.04501979053020477,0.5383233428001404,,,,,,
1764808585.750965,,,,,,,0.4203946590423584,-0.42410507798194885,-0.11916875839233398,0.2309805452823639,0.028941093012690544,-0.1651628464460373
1764808585.751792,-1.9542063148260116,2.590703890943527,1.0697194817900657,-0.020370550453662872,-0.015378521755337715,0.2931663691997528,,,,,,
1764808585.760995,,,,,,,0.43540292978286743,-0.40660083293914795,-0.11190655827522278,0.18851910531520844,-0.0681827962398529,0.12135788053274155
1764808585.761844,-1.9228196813069283,2.7801912745326756,1.097013439168036,-0.09067001193761826,0.009616842493414879,0.038401708006858826,,,,,,
1764808585.771025,,,,,,,0.46677881479263306,-0.37008896470069885,-0.10762178897857666,0.1902737021446228,-0.17055682837963104,0.41806137561798096
1764808585.771897,-1.9429649359740315,3.055872255975008,1.179191079378128,-0.15610367059707642,0.03461165726184845,-0.22462570667266846,,,,,,
1764808585.781055,,,,,,,0.5068932175636292,-0.3380124866962433,-0.10978537797927856,0.2560713291168213,-0.272525817155838,0.7143297791481018
1764808585.781949,-2.013551653242111,3.3393010750651357,1.2651460461698472,-0.22166110575199127,0.06727718561887741,-0.48304152488708496,,,,,,
1764808585.791085,,,,,,,0.5398848652839661,-0.31425902247428894,-0.11484003067016602,0.3710804283618927,-0.34934547543525696,1.0091907978057861
1764808585.792001,-2.0744714013680814,3.625873452877998,1.3971464325606822,-0.29951736330986023,0.12075483798980713,-0.7408602237701416,,,,,,
1764808585.801115,,,,,,,0.5689203143119812,-0.28169912099838257,-0.13035279512405396,0.4871372580528259,-0.43576985597610474,1.2881274223327637
1764808585.802054,-2.1702977738328277,3.853562849089503,1.6114672286331653,-0.38666585087776184,0.19264154136180878,-0.9964470267295837,,,,,,
1764808585.811145,,,,,,,0.6011806726455688,-0.2563283443450928,-0.1375984251499176,0.5903252959251404,-0.5475326180458069,1.5447900295257568
1764808585.812107,-2.2374127233371137,4.065908545696735,1.6531879169009625,-0.472467303276062,0.24816486239433289,-1.2533317804336548,,,,,,
1764808585.821175,,,,,,,0.6208057403564453,-0.2649938464164734,-0.12662085890769958,0.6519247889518738,-0.6398018002510071,1.8110430240631104
1764808585.822158,-2.2157228695765134,4.128612546890974,1.608220794057846,-0.5625548362731934,0.27146753668785095,-1.5084823369979858,,,,,,
1764808585.831205,,,,,,,0.6257069110870361,-0.2809423506259918,-0.10611829161643982,0.7107781767845154,-0.7065856456756592,2.0810678005218506
1764808585.83221,-2.1862784561663866,4.138846356135606,1.5844471197605132,-0.6602206826210022,0.27963635325431824,-1.7644226551055908,,,,,,
1764808585.841235,,,,,,,0.6257621645927429,-0.29289719462394714,-0.07644087076187134,0.7786853313446045,-0.7809703946113586,2.3253331184387207
1764808585.842263,-2.1626818920016286,4.17768725118339,1.410454680814594,-0.7587141990661621,0.2986838221549988,-2.0205299854278564,,,,,,
1764808585.851265,,,,,,,0.6206964254379272,-0.2988182604312897,-0.03763681650161743,0.8187265396118164,-0.8457411527633667,2.57114577293396
1764808585.852315,-2.205849125815928,4.115390661746264,1.0765944821260869,-0.8493762016296387,0.32254430651664734,-2.285600423812866,,,,,,
1764808585.861295,,,,,,,0.620311975479126,-0.3026677072048187,-0.0011744201183319092,0.8777464628219604,-0.8842517733573914,2.8194973468780518
1764808585.862367,-2.3193238215655088,4.129297022023797,0.8087105843007564,-0.9229767322540283,0.3259070813655853,-2.5606188774108887,,,,,,
1764808585.871326,,,,,,,0.6199719309806824,-0.29329124093055725,0.0217268168926239,0.8724700212478638,-0.9397464394569397,3.052346706390381
1764808585.87242,-2.3781147409692407,4.181656739336252,0.6701566846132279,-0.9913185834884644,0.32841211557388306,-2.82766056060791,,,,,,
1764808585.881356,,,,,,,0.6218754053115845,-0.28132396936416626,0.03543400764465332,0.8001829981803894,-1.0213916301727295,3.2450246810913086
1764808585.882473,-2.443159752331674,4.227131373310089,0.4651707031190395,-1.0540874004364014,0.3214660584926605,-3.0610647201538086,,,,,,
1764808585.891386,,,,,,,0.6234902143478394,-0.3132385015487671,0.05738347768783569,0.6482101678848267,-1.1042068004608154,3.460888385772705
1764808585.892524,-2.4354452324315905,4.2238714947313065,0.2796222664140165,-1.1317230463027954,0.29371920228004456,-3.2794015407562256,,,,,,
1764808585.901416,,,,,,,0.6221916079521179,-0.35067442059516907,0.08962786197662354,0.393332302570343,-1.183519721031189,3.649163007736206
1764808585.902577,-2.39018219538182,4.007924558761716,0.07699906852841377,-1.217221975326538,0.23557917773723602,-3.4963085651397705,,,,,,
1764808585.911446,,,,,,,0.6198750734329224,-0.3662002384662628,0.10590633749961853,0.1916639357805252,-1.2397327423095703,3.840184211730957
1764808585.912629,-2.380915185342729,3.802275144922733,-0.08776844595447182,-1.3166499137878418,0.15617847442626953,-3.7035577297210693,,,,,,
1764808585.921476,,,,,,,0.6242823600769043,-0.3517265021800995,0.10347524285316467,0.06367720663547516,-1.2907021045684814,4.031625747680664
1764808585.922681,-2.320644256514311,3.666062839925289,-0.08501271750554441,-1.4335066080093384,0.0936429351568222,-3.894347667694092,,,,,,
1764808585.931506,,,,,,,0.6383352279663086,-0.299533486366272,0.10600221157073975,-0.006787240970879793,-1.3756681680679321,4.175128936767578
1764808585.932733,-2.268153606298566,3.6221278366088865,-0.0649509033381939,-1.5538065433502197,0.06563346087932587,-4.062897205352783,,,,,,
1764808585.941536,,,,,,,0.6579914093017578,-0.2479633092880249,0.10804665088653564,-0.055273283272981644,-1.473639965057373,4.332940578460693
1764808585.942786,-2.2575328435629607,3.616765432792902,-0.03453472228646278,-1.6674057245254517,0.07525280117988586,-4.208396911621094,,,,,,
1764808585.951566,,,,,,,0.6758845448493958,-0.2307106852531433,0.09705343842506409,-0.10057620704174042,-1.558736801147461,4.518123149871826
1764808585.952838,-2.28556475982666,3.6436809122472997,0.014043686388991772,-1.770704746246338,0.09101474285125732,-4.334407806396484,,,,,,
1764808585.961596,,,,,,,0.6904343366622925,-0.24512669444084167,0.10153591632843018,-0.13464070856571198,-1.662741780281067,4.6664018630981445
1764808585.96289,-2.3913006780177355,3.7183354634761807,0.025937574332952497,-1.8739533424377441,0.09018782526254654,-4.444525718688965,,,,,,
1764808585.971626,,,,,,,0.690064013004303,-0.2146264910697937,0.10371226072311401,-0.18194615840911865,-1.733654260635376,4.754404067993164
1764808585.972943,-2.432600072133541,3.6300001774191855,0.060519058370590205,-1.9684257507324219,0.08419817686080933,-4.548016548156738,,,,,,
1764808585.981656,,,,,,,0.6861521005630493,-0.13111358880996704,0.11131712794303894,-0.181474506855011,-1.7640258073806763,4.809749603271484
1764808585.982996,-2.4123463886559007,3.5679181075155735,0.10653028343915939,-2.066516160964966,0.0950809195637703,-4.649341106414795,,,,,,
1764808585.991686,,,,,,,0.697881281375885,-0.044990718364715576,0.14805546402931213,-0.16170693933963776,-1.8327083587646484,4.848122596740723
1764808585.993047,-2.3013065188378095,3.665145140558481,0.0751251004832331,-2.14096736907959,0.13981296122074127,-4.751729965209961,,,,,,
1764808586.001717,,,,,,,0.7195154428482056,0.027431786060333252,0.18389393389225006,-0.11778980493545532,-1.8914103507995605,4.914956092834473
1764808586.0031,-1.9883096599578856,4.005642585304379,-0.12013152329027652,-2.1862633228302,0.2021607607603073,-4.834860324859619,,,,,,
1764808586.011747,,,,,,,0.7392662763595581,0.05475568771362305,0.2025943398475647,-0.051854196935892105,-1.9214409589767456,5.068011283874512
1764808586.013152,-1.519579218530655,4.4981887866050005,-0.322110724183917,-2.221557378768921,0.2630994915962219,-4.880910396575928,,,,,,
1764808586.021777,,,,,,,0.7481176257133484,0.01855522394180298,0.20674115419387817,0.09315183013677597,-1.9703618288040161,5.2446441650390625
1764808586.023204,-1.0023539185255765,4.88603484250307,-0.5002835175544024,-2.2596640586853027,0.3250252902507782,-4.884110927581787,,,,,,
1764808586.031807,,,,,,,0.7307442426681519,-0.039621829986572266,0.19405049085617065,0.28478652238845825,-1.9089672565460205,5.360385417938232
1764808586.033256,-0.6972475206345319,4.958782683327794,-0.48759179376363754,-2.309343099594116,0.350103497505188,-4.880069732666016,,,,,,
1764808586.041836,,,,,,,0.7081673741340637,-0.03161156177520752,0.1624620258808136,0.586435079574585,-1.7572946548461914,5.445677757263184
1764808586.043309,-0.7236901218801737,4.677630284737051,-0.14441073595695197,-2.406621217727661,0.42176583409309387,-4.8521952629089355,,,,,,
1764808586.051866,,,,,,,0.705310046672821,0.05320686101913452,0.12271614372730255,0.9261086583137512,-1.6878564357757568,5.480384349822998
1764808586.053362,-1.0339905812829733,4.31450453633666,0.15026479574739932,-2.5118472576141357,0.5041349530220032,-4.884638786315918,,,,,,
1764808586.061897,,,,,,,0.740321695804596,0.16496819257736206,0.10188055038452148,1.2152847051620483,-1.6723253726959229,5.492367267608643
1764808586.063414,-1.5893816535532475,3.8623888373628255,0.2929903550963849,-2.6281485557556152,0.5531753301620483,-5.012220859527588,,,,,,
1764808586.071926,,,,,,,0.7903544902801514,0.2433142066001892,0.10813000798225403,1.2996457815170288,-1.6665562391281128,5.486773490905762
1764808586.073467,-1.9587462963432072,3.699586631603539,0.36165304549932475,-2.760740280151367,0.5736987590789795,-5.202817440032959,,,,,,
1764808586.081956,,,,,,,0.8315014839172363,0.2844945192337036,0.13899588584899902,1.1105767488479614,-1.6573911905288696,5.463318347930908
1764808586.083519,-1.8298253173977135,4.012895040650665,0.21708799576349555,-2.8800911903381348,0.5583550930023193,-5.375993251800537,,,,,,
1764808586.091986,,,,,,,0.8603157997131348,0.28991103172302246,0.19167709350585938,0.6690054535865784,-1.6706196069717407,5.468760013580322
1764808586.093571,-1.0278531014412642,4.777901507781445,-0.09343808908872306,-2.9467928409576416,0.5265100598335266,-5.441456317901611,,,,,,
1764808586.102016,,,,,,,0.8765324354171753,0.24433273077011108,0.21931803226470947,0.16950005292892456,-1.6934895515441895,5.496689319610596
1764808586.103624,0.3861784149467945,5.737881388697028,-0.549574494946003,-2.944791316986084,0.4805790185928345,-5.355091094970703,,,,,,
1764808586.112046,,,,,,,0.8681674003601074,0.19005978107452393,0.21796485781669617,-0.1893157958984375,-1.6718276739120483,5.522887229919434
1764808586.113676,1.9664538019806146,6.503660593765973,-0.7677969015669077,-2.9310219287872314,0.3828311562538147,-5.1400957107543945,,,,,,
1764808586.122076,,,,,,,0.8314005136489868,0.198839008808136,0.21417206525802612,-0.3303946256637573,-1.6375999450683594,5.5571699142456055
1764808586.123728,3.0999639111578463,6.610988165062666,-0.6280131678234785,-2.920151710510254,0.18965160846710205,-4.921665191650391,,,,,,
1764808586.132106,,,,,,,0.7917084693908691,0.2797093987464905,0.21383631229400635,-0.2055688351392746,-1.5775392055511475,5.574873924255371
1764808586.13378,3.1815403706043957,6.023351942747831,-0.4791658376585692,-2.934746265411377,-0.09192626923322678,-4.798260688781738,,,,,,
1764808586.142137,,,,,,,0.7733821868896484,0.4082796573638916,0.21272416412830353,0.08319798856973648,-1.5254137516021729,5.598702907562256
1764808586.143833,2.4793606542646884,5.206283864468336,-0.48802660498432815,-3.004560708999634,-0.3794039785861969,-4.77877140045166,,,,,,
1764808586.152167,,,,,,,0.797522783279419,0.49442005157470703,0.20295853912830353,0.45937857031822205,-1.5470281839370728,5.642518520355225
1764808586.153885,1.7145190223067999,4.672533253858983,-0.6389034682154655,-3.1211068630218506,-0.5755032300949097,-4.822279453277588,,,,,,
1764808586.162197,,,,,,,0.8361271023750305,0.5134922862052917,0.23035116493701935,0.7374602556228638,-1.5624977350234985,5.744598865509033
1764808586.163937,1.283286244624853,4.660522790330648,-0.8900975855898111,-3.2501015663146973,-0.6315597891807556,-4.889974117279053,,,,,,
1764808586.172227,,,,,,,0.8481308817863464,0.4665859341621399,0.2757490277290344,0.8250897526741028,-1.5656464099884033,5.874674320220947
1764808586.17399,1.2184218505263327,4.967282216125726,-1.2821160318017004,-3.3506479263305664,-0.5515153408050537,-4.9721903800964355,,,,,,
1764808586.182257,,,,,,,0.8321917057037354,0.3729187846183777,0.3493131995201111,0.4699936807155609,-1.5229032039642334,5.851692199707031
1764808586.184042,1.3351122934520243,5.418989042037725,-1.9568992071717977,-3.381908655166626,-0.42786452174186707,-5.081536769866943,,,,,,
1764808586.192287,,,,,,,0.8196220397949219,0.3266363739967346,0.4455429017543793,-0.08537980914115906,-1.3803331851959229,5.800221920013428
1764808586.194094,1.574477514410019,5.96775806581974,-2.4421125813663003,-3.324061393737793,-0.43380481004714966,-5.136659622192383,,,,,,
1764808586.202317,,,,,,,0.8318507671356201,0.3031719923019409,0.5080745220184326,-0.5491056442260742,-1.331801414489746,5.8012614250183105
1764808586.204147,1.9225521164119241,6.433222198927402,-2.348566282662749,-3.182910203933716,-0.6404376029968262,-5.068185329437256,,,,,,
1764808586.212348,,,,,,,0.8378052711486816,0.3201296329498291,0.5225265026092529,-0.8202532529830933,-1.3176016807556152,5.768885612487793
1764808586.214199,2.256287811937928,6.579332797604799,-2.0714421166747807,-3.023834466934204,-0.9671493172645569,-4.909351348876953,,,,,,
1764808586.222377,,,,,,,0.8075660467147827,0.36950427293777466,0.49498528242111206,-0.8797218799591064,-1.2128952741622925,5.687506675720215
1764808586.224251,2.268261742848158,6.312057240936159,-1.7279250318467616,-2.9162466526031494,-1.3019152879714966,-4.753086566925049,,,,,,
1764808586.232407,,,,,,,0.7657445669174194,0.39924025535583496,0.445797324180603,-0.8710336089134216,-1.0898579359054565,5.623080253601074
1764808586.234303,1.9314421098321675,5.778600352576374,-1.3642758440941571,-2.8906660079956055,-1.547095537185669,-4.664621353149414,,,,,,
1764808586.242437,,,,,,,0.7594978213310242,0.39576029777526855,0.39994126558303833,-0.7741405963897705,-0.985361635684967,5.569330215454102
1764808586.244356,1.4703846872508526,5.215270304000377,-1.0557511621922253,-2.9304301738739014,-1.6866284608840942,-4.638153553009033,,,,,,
1764808586.252467,,,,,,,0.7957121133804321,0.37724894285202026,0.3548818826675415,-0.7393108606338501,-0.8341023325920105,5.522525787353516
1764808586.254408,1.1433160483986138,4.950185535374284,-0.7605348746746778,-3.008861780166626,-1.7454813718795776,-4.608623504638672,,,,,,
1764808586.262497,,,,,,,0.8650797605514526,0.3989718556404114,0.33055436611175537,-0.7191688418388367,-0.7595567107200623,5.451702117919922
1764808586.26446,0.98794954559803,5.168953373983502,-0.591130494171381,-3.08663272857666,-1.7277718782424927,-4.521596431732178,,,,,,
1764808586.272527,,,,,,,0.941845178604126,0.44865888357162476,0.3203282952308655,-0.636773943901062,-0.7928630113601685,5.435293674468994
1764808586.274513,0.8580570912718772,5.7891007038027045,-0.7122036822259425,-3.136625051498413,-1.6320464611053467,-4.391550540924072,,,,,,
1764808586.282558,,,,,,,0.9753884077072144,0.46492117643356323,0.3278179168701172,-0.5893582105636597,-0.8636271953582764,5.442882537841797
1764808586.284565,0.5788309845685958,6.391945016643405,-1.0919213767260312,-3.1449997425079346,-1.4819490909576416,-4.262308120727539,,,,,,
1764808586.292588,,,,,,,0.9431908130645752,0.4356854557991028,0.3527348041534424,-0.5661619305610657,-0.8614766597747803,5.419252395629883
1764808586.294617,0.11406126346588134,6.6074430398017165,-1.6064467701226472,-3.1385271549224854,-1.3208123445510864,-4.172883033752441,,,,,,
1764808586.302618,,,,,,,0.8770637512207031,0.3686704635620117,0.3905041217803955,-0.5950963497161865,-0.7550157308578491,5.379456043243408
1764808586.30467,-0.2825812623500824,6.423374174129963,-1.8587188189268111,-3.144857406616211,-1.208919882774353,-4.134176731109619,,,,,,
1764808586.312648,,,,,,,0.8255148530006409,0.3398839831352234,0.44601553678512573,-0.6704754829406738,-0.6093754768371582,5.347349166870117
1764808586.314722,-0.555602084672451,6.133475866764783,-1.8440180934011936,-3.1570260524749756,-1.1504664421081543,-4.144097328186035,,,,,,
1764808586.322678,,,,,,,0.8223784565925598,0.34786659479141235,0.5069373250007629,-0.6208738684654236,-0.45958730578422546,5.350763320922852
1764808586.324774,-0.6819178495556115,6.1463715886950485,-1.937422353285551,-3.1393656730651855,-1.1417981386184692,-4.177038669586182,,,,,,
1764808586.332708,,,,,,,0.859555721282959,0.37828588485717773,0.5633395910263062,-0.6292834281921387,-0.3924514055252075,5.3199615478515625
1764808586.334826,-0.7367915955156088,6.620425270971656,-2.3322411708056925,-3.0581321716308594,-1.1781004667282104,-4.202873706817627,,,,,,
1764808586.342738,,,,,,,0.9100874662399292,0.43345820903778076,0.6065399050712585,-0.7406938076019287,-0.32668837904930115,5.315455913543701
1764808586.344879,-0.7501029125094413,7.452978503152727,-2.807575540542602,-2.9441592693328857,-1.257192850112915,-4.202930927276611,,,,,,
1764808586.352768,,,,,,,0.9348383545875549,0.42820310592651367,0.6407021880149841,-1.0322067737579346,-0.29586416482925415,5.289625644683838
1764808586.354931,-0.6019137539923191,8.285826918888091,-2.924807250738144,-2.7851977348327637,-1.3534101247787476,-4.177900314331055,,,,,,
1764808586.362798,,,,,,,0.9080058932304382,0.36998796463012695,0.6667861938476562,-1.3279292583465576,-0.2914150655269623,5.264172554016113
1764808586.364983,-0.40365065101236103,8.314970011264085,-3.0695991680324077,-2.584907293319702,-1.4461653232574463,-4.131010055541992,,,,,,
1764808586.372828,,,,,,,0.8371763825416565,0.2825395464897156,0.656866192817688,-1.5144624710083008,-0.25213131308555603,5.183599472045898
1764808586.375036,-0.2537114339575171,7.416510182455181,-3.1895009742200373,-2.4497032165527344,-1.5447545051574707,-4.077319622039795,,,,,,
1764808586.382858,,,,,,,0.7435694932937622,0.2382739782333374,0.6150551438331604,-1.677781105041504,-0.12332940846681595,5.001284599304199
1764808586.385088,-0.21382482924908397,6.1721723849058145,-2.71983179063797,-2.4471943378448486,-1.6614108085632324,-4.049117088317871,,,,,,
1764808586.392888,,,,,,,0.6850915551185608,0.2553292512893677,0.5652161240577698,-1.903891921043396,-0.007056321017444134,4.763852119445801
1764808586.39514,-0.2564642397969961,5.022372235184908,-1.9912802002012728,-2.5346076488494873,-1.7728071212768555,-4.069166660308838,,,,,,
1764808586.402919,,,,,,,0.6787496209144592,0.32651636004447937,0.532667875289917,-2.142594814300537,0.12150724232196808,4.60892915725708
1764808586.405193,-0.4048775624588132,4.3233489370495075,-1.6133235240243375,-2.636629104614258,-1.834844708442688,-4.115211009979248,,,,,,
1764808586.412949,,,,,,,0.7137383222579956,0.4225980043411255,0.49787384271621704,-2.2906816005706787,0.18938882648944855,4.5687761306762695
1764808586.415245,-0.4880620416238904,4.53674034331739,-1.7626774885371326,-2.6942687034606934,-1.823089599609375,-4.124349594116211,,,,,,
1764808586.422979,,,,,,,0.7622950077056885,0.47774380445480347,0.46167004108428955,-2.3212945461273193,0.19698096811771393,4.549304008483887
1764808586.425297,-0.4212181641459465,5.565243433099985,-2.409518179492652,-2.689051389694214,-1.7336015701293945,-4.06377649307251,,,,,,
1764808586.433009,,,,,,,0.7972978949546814,0.4869039058685303,0.45111072063446045,-2.2925751209259033,0.17655931413173676,4.478163242340088
1764808586.435349,-0.2011765062086284,6.651607175698876,-3.2506381644889712,-2.6351304054260254,-1.586388111114502,-3.943950891494751,,,,,,
1764808586.443039,,,,,,,0.808225691318512,0.4898085296154022,0.4640616774559021,-2.143815755844116,0.1405315399169922,4.388867378234863
1764808586.445402,0.06520400131642819,7.135377949869632,-3.6997719250425694,-2.57293963432312,-1.4459465742111206,-3.8151092529296875,,,,,,
1764808586.453069,,,,,,,0.7950997352600098,0.5339571237564087,0.4779267907142639,-1.9762001037597656,0.11857696622610092,4.321164608001709
1764808586.455454,0.1914491851814091,6.927315629670024,-3.726054659551382,-2.514603853225708,-1.327099323272705,-3.7195470333099365,,,,,,
1764808586.463099,,,,,,,0.764296293258667,0.600558340549469,0.49284428358078003,-1.8193674087524414,0.10786519944667816,4.2462897300720215
1764808586.465506,0.16329890323504806,6.614708646890521,-3.6525510319232937,-2.461855888366699,-1.2450575828552246,-3.671478033065796,,,,,,
1764808586.473129,,,,,,,0.7411682605743408,0.6075395345687866,0.49153000116348267,-1.7760595083236694,0.12192589044570923,4.128040790557861
1764808586.475559,0.07157930850200354,6.639656041142344,-3.5430317958012223,-2.4112932682037354,-1.188978910446167,-3.643864631652832,,,,,,
1764808586.483159,,,,,,,0.7231454849243164,0.5759229063987732,0.48561084270477295,-1.852291226387024,0.17571322619915009,3.97283935546875
1764808586.485611,0.1858830024216324,6.801634655559063,-3.417041317349672,-2.3515055179595947,-1.146233320236206,-3.6125402450561523,,,,,,
1764808586.493189,,,,,,,0.7149204611778259,0.5565565824508667,0.4723641872406006,-1.9801015853881836,0.20174776017665863,3.810153007507324
1764808586.495663,0.6021166926858946,6.948562415838241,-3.350507236473262,-2.250795364379883,-1.1412345170974731,-3.554395914077759,,,,,,
1764808586.503219,,,,,,,0.7112395763397217,0.5772407054901123,0.4677656292915344,-2.1325254440307617,0.21843725442886353,3.652419328689575
1764808586.505716,1.1366818710811435,7.028399922662973,-3.3405636423468588,-2.137784719467163,-1.2148343324661255,-3.4532768726348877,,,,,,
1764808586.513249,,,,,,,0.6991764903068542,0.5953306555747986,0.4684262275695801,-2.35526442527771,0.19120484590530396,3.50264310836792
1764808586.515768,1.6267906161017716,7.113633151051402,-3.226126531305909,-2.0323781967163086,-1.3433436155319214,-3.3621459007263184,,,,,,
1764808586.523279,,,,,,,0.6734415888786316,0.5558775067329407,0.49063944816589355,-2.623535394668579,0.21357059478759766,3.378453016281128
1764808586.52582,1.9050902556098996,6.969219419419765,-3.3981238509118556,-1.912495493888855,-1.4783823490142822,-3.3258302211761475,,,,,,
1764808586.533309,,,,,,,0.6249362230300903,0.49777674674987793,0.5451525449752808,-2.9277491569519043,0.291925311088562,3.278165578842163
1764808586.535872,2.096502323651314,6.572567541253567,-3.687404318639636,-1.7891831398010254,-1.5772173404693604,-3.346491575241089,,,,,,
1764808586.54334,,,,,,,0.5728344917297363,0.45741766691207886,0.59685879945755,-3.2096757888793945,0.34591320157051086,3.2087209224700928
1764808586.545925,2.1863386619210243,6.2939627813190215,-3.802263746745884,-1.646144986152649,-1.6226372718811035,-3.3981032371520996,,,,,,
1764808586.55337,,,,,,,0.5361718535423279,0.42175987362861633,0.6154745817184448,-3.422417640686035,0.45672494173049927,3.1627860069274902
1764808586.555977,2.1427258762963115,5.957475156736374,-3.9326872392088172,-1.5246684551239014,-1.6821131706237793,-3.437624454498291,,,,,,
1764808586.5634,,,,,,,0.5100420713424683,0.4522634744644165,0.576301097869873,-3.5418567657470703,0.5550515055656433,3.1383190155029297
1764808586.566029,2.078754631645232,5.58873302975893,-3.7777395463421937,-1.4718468189239502,-1.7969865798950195,-3.460752487182617,,,,,,
1764808586.57343,,,,,,,0.533336341381073,0.5199286341667175,0.49198561906814575,-3.5752758979797363,0.5636811852455139,3.117420196533203
1764808586.576082,1.9893547850966453,5.2566217205643655,-3.5085523108333345,-1.4730182886123657,-1.9225835800170898,-3.4693124294281006,,,,,,
1764808586.58346,,,,,,,0.5848962664604187,0.5981056690216064,0.3991272449493408,-3.4857187271118164,0.43923062086105347,3.1196529865264893
1764808586.586134,1.9164925241120159,4.965351540324091,-3.4114123715519904,-1.4957845211029053,-1.9958946704864502,-3.442965269088745,,,,,,
1764808586.59349,,,,,,,0.6130043864250183,0.6118286848068237,0.3142210841178894,-2.999035358428955,0.3755485713481903,3.169689655303955
1764808586.596186,1.932340227715671,4.75904687744677,-3.5278631605029105,-1.5374847650527954,-1.9686393737792969,-3.3567662239074707,,,,,,
1764808586.60352,,,,,,,0.5869285464286804,0.6648662090301514,0.2071874439716339,-2.4450764656066895,0.281832218170166,3.1940081119537354
1764808586.606239,1.9714646158799527,4.606780678749084,-3.7112639176547524,-1.5833100080490112,-1.8331867456436157,-3.2116286754608154,,,,,,
1764808586.61355,,,,,,,0.555203914642334,0.7526408433914185,0.2017856240272522,-1.9467755556106567,0.15474936366081238,3.159311294555664
1764808586.616291,1.8586871086142955,4.436254016217589,-3.662939154946804,-1.6220911741256714,-1.5931397676467896,-3.048076629638672,,,,,,
1764808586.62358,,,,,,,0.5196139812469482,0.67847740650177,0.22421570122241974,-1.7176324129104614,0.08302323520183563,3.1189980506896973
1764808586.626343,1.524455592395365,4.319044517853856,-3.56137789209187,-1.6063690185546875,-1.2820736169815063,-2.911681652069092,,,,,,
1764808586.63361,,,,,,,0.45458799600601196,0.5749302506446838,0.24004919826984406,-1.657089114189148,0.021484509110450745,3.055023670196533
1764808586.636395,1.0377829593032597,3.9706595347285267,-3.5208430526077747,-1.54618501663208,-0.989294707775116,-2.8243789672851562,,,,,,
1764808586.64364,,,,,,,0.36311250925064087,0.5486962199211121,0.25192779302597046,-1.6145673990249634,0.0543266125023365,2.990447759628296
1764808586.646448,0.7296677349850536,3.3397114094316955,-3.277583746820688,-1.4900535345077515,-0.7617672681808472,-2.78550386428833,,,,,,
1764808586.65367,,,,,,,0.2659662961959839,0.5698031187057495,0.24541205167770386,-1.5381885766983032,0.1938815861940384,2.932863712310791
1764808586.6565,0.8325868421897291,2.875905564925074,-2.825101844882965,-1.4467241764068604,-0.6101064682006836,-2.7807767391204834,,,,,,
1764808586.6637,,,,,,,0.21918880939483643,0.5668216943740845,0.20863884687423706,-1.5259904861450195,0.2970670759677887,2.8343658447265625
1764808586.666552,1.221705694502592,2.8439801483541727,-2.454842299079895,-1.4017305374145508,-0.5540421009063721,-2.7779345512390137,,,,,,
1764808586.673731,,,,,,,0.22867023944854736,0.5049748420715332,0.16381020843982697,-1.5848841667175293,0.3229503631591797,2.670673131942749
1764808586.676605,1.8394240436092018,3.0147955646991726,-2.231235788267851,-1.3346983194351196,-0.6065317988395691,-2.748150587081909,,,,,,
1764808586.683761,,,,,,,0.25921815633773804,0.46304941177368164,0.11719514429569244,-1.706400752067566,0.3458530008792877,2.486551284790039
1764808586.686657,2.605170515452325,3.0780694747358557,-1.92147834970057,-1.2561904191970825,-0.7694903612136841,-2.6670408248901367,,,,,,
1764808586.693791,,,,,,,0.2952382564544678,0.47645533084869385,0.08894813060760498,-1.7302019596099854,0.2547079026699066,2.3818140029907227
1764808586.696709,3.3157410435184835,3.126678899604082,-1.5264192936837673,-1.1418490409851074,-0.976622462272644,-2.5311028957366943,,,,,,
1764808586.703821,,,,,,,0.2969692349433899,0.4973333477973938,0.07018929719924927,-1.660385251045227,0.1666736602783203,2.259021043777466
1764808586.706762,3.6762744373381135,2.886648492735624,-1.441309983935952,-1.0152274370193481,-1.1239300966262817,-2.374194860458374,,,,,,
1764808586.713851,,,,,,,0.23285990953445435,0.5717901587486267,0.036995112895965576,-1.525267243385315,0.13609817624092102,2.150291681289673
1764808586.716814,3.5887606967970727,2.395820201268792,-1.5512889465242623,-0.9080821871757507,-1.1425892114639282,-2.2295033931732178,,,,,,
1764808586.723881,,,,,,,0.15720915794372559,0.5893183350563049,-0.014397799968719482,-1.3523231744766235,0.13967826962471008,2.077183485031128
1764808586.726866,3.3016882605075835,1.8394389489173888,-1.64834822178483,-0.8524048328399658,-1.0572823286056519,-2.1036059856414795,,,,,,
1764808586.733911,,,,,,,0.09345519542694092,0.5802828073501587,-0.07302737236022949,-1.1992340087890625,0.22158724069595337,1.9732023477554321
1764808586.736918,3.0520217180266975,1.3361410519778727,-1.6112614769279956,-0.8528613448143005,-0.8921267986297607,-2.005128860473633,,,,,,
1764808586.743941,,,,,,,0.06519979238510132,0.6105090975761414,-0.10485082864761353,-1.0362176895141602,0.20679977536201477,1.8827779293060303
1764808586.746971,2.927869268657267,1.010691538760066,-1.6046312451332807,-0.8720374703407288,-0.6912520527839661,-1.9197657108306885,,,,,,
1764808586.753971,,,,,,,0.06174570322036743,0.6221343278884888,-0.14850318431854248,-0.9064645767211914,0.16035611927509308,1.7891343832015991
1764808586.757023,2.986646451796591,0.7090647996783256,-1.7537211518824098,-0.9212874174118042,-0.5327553749084473,-1.8540749549865723,,,,,,
1764808586.764001,,,,,,,0.04781639575958252,0.6408754587173462,-0.16719818115234375,-0.8340676426887512,0.11726296693086624,1.6938879489898682
1764808586.767075,3.3052962218716737,0.41287469869256016,-1.9647399838000534,-0.9759013652801514,-0.4040740728378296,-1.798635721206665,,,,,,
1764808586.774031,,,,,,,0.017407238483428955,0.671021580696106,-0.15287771821022034,-0.8250333666801453,0.08477985858917236,1.6106606721878052
1764808586.777128,3.974566479039192,0.282363820207119,-2.361714518049359,-1.0049635171890259,-0.29649850726127625,-1.726041316986084,,,,,,
1764808586.784061,,,,,,,-0.013640642166137695,0.6888735294342041,-0.10774753987789154,-0.812284529209137,0.05456017330288887,1.5948235988616943
1764808586.78718,4.697153608113527,0.37532618154287334,-2.853921696653962,-0.996288001537323,-0.21604159474372864,-1.6318693161010742,,,,,,
1764808586.794091,,,,,,,-0.037818968296051025,0.6371771097183228,-0.05855920910835266,-0.9204780459403992,0.023583078756928444,1.5372878313064575
1764808586.797232,5.324440288293362,0.6000929683059454,-3.3992747745126484,-0.9422979950904846,-0.18528901040554047,-1.5485275983810425,,,,,,
1764808586.804122,,,,,,,-0.06908947229385376,0.6565980911254883,-0.017440348863601685,-1.0274462699890137,0.01729935221374035,1.4496501684188843
1764808586.807285,5.775332290691137,0.6701081692963838,-3.793931094947457,-0.8607932925224304,-0.22245103120803833,-1.4812579154968262,,,,,,
1764808586.814152,,,,,,,-0.07867729663848877,0.7147614359855652,-0.008645683526992798,-1.099253535270691,-0.04502128064632416,1.3878111839294434
1764808586.817337,6.102320850044489,0.6701864952296018,-3.9430280159592628,-0.7589353919029236,-0.31390634179115295,-1.418378233909607,,,,,,
1764808586.824182,,,,,,,-0.09147560596466064,0.779942512512207,-0.012471705675125122,-1.10943603515625,-0.07836246490478516,1.2953990697860718
1764808586.827389,6.330954833629727,0.512328175613284,-3.917683731344342,-0.664391279220581,-0.402966171503067,-1.3362194299697876,,,,,,
1764808586.834212,,,,,,,-0.12289309501647949,0.8551965355873108,-0.029536843299865723,-1.0765163898468018,-0.07012743502855301,1.1850910186767578
1764808586.837441,6.600438713997602,0.3484580483615398,-3.86720149834156,-0.5811145305633545,-0.4481185972690582,-1.223419189453125,,,,,,
1764808586.844242,,,,,,,-0.14699780941009521,0.9069401621818542,-0.0552496612071991,-1.0133275985717773,-0.07661543041467667,1.0548549890518188
1764808586.847494,6.795405990302562,0.30214959391206503,-3.8775481203109026,-0.5083420276641846,-0.4759603440761566,-1.0883516073226929,,,,,,
1764808586.854272,,,,,,,-0.167372465133667,0.9379849433898926,-0.06901320815086365,-0.9624398946762085,-0.09160742908716202,0.899308443069458
1764808586.857546,6.88563863441348,0.09293459654599427,-3.942327174213528,-0.43257513642311096,-0.4698146879673004,-0.9599304795265198,,,,,,
1764808586.864302,,,,,,,-0.20198720693588257,0.9687506556510925,-0.08054915070533752,-0.8809128403663635,-0.07399274408817291,0.7661932706832886
1764808586.867598,6.924575975573062,-0.25848200936019416,-4.189186550319195,-0.35619139671325684,-0.3955574929714203,-0.8378591537475586,,,,,,
1764808586.874332,,,,,,,-0.24144214391708374,0.986881673336029,-0.08900254964828491,-0.7699658274650574,-0.012679586187005043,0.6346222758293152
1764808586.877651,6.972794355297088,-0.552381076799333,-4.395982211583853,-0.2818168103694916,-0.2797793447971344,-0.7011638879776001,,,,,,
1764808586.884362,,,,,,,-0.2648904323577881,1.0258853435516357,-0.09616532921791077,-0.6241705417633057,0.05282006412744522,0.496711790561676
1764808586.887703,7.0769561560392376,-0.5463379972428083,-4.434287100058794,-0.20441527664661407,-0.1735808402299881,-0.5344893336296082,,,,,,
1764808586.894392,,,,,,,-0.2605987787246704,1.0663199424743652,-0.09110015630722046,-0.46907564997673035,0.08033423870801926,0.345673143863678
1764808586.897755,7.175427051663398,-0.3180591107055545,-4.436866010636091,-0.11137587577104568,-0.12371448427438736,-0.3433147966861725,,,,,,
1764808586.904422,,,,,,,-0.2454700469970703,1.0730879306793213,-0.09027892351150513,-0.33665981888771057,0.0750926062464714,0.17307233810424805
1764808586.907808,7.182784428688883,-0.0987330536916852,-4.435495891326665,0.006452806293964386,-0.11911184340715408,-0.14873062074184418,,,,,,
1764808586.914452,,,,,,,-0.2382906675338745,1.0485939979553223,-0.08061644434928894,-0.26293396949768066,0.06405114382505417,-0.02983803302049637
1764808586.91786,7.083312831589579,-0.011010346575081348,-4.475408214998245,0.14180131256580353,-0.13070324063301086,0.040808938443660736,,,,,,
1764808586.924482,,,,,,,-0.24742019176483154,1.0223770141601562,-0.056829243898391724,-0.21014802157878876,0.06988292932510376,-0.24564382433891296
1764808586.927912,6.961652199035883,-0.058924482655525204,-4.440350345620513,0.27898260951042175,-0.1313573122024536,0.2303655594587326,,,,,,
1764808586.934513,,,,,,,-0.256644070148468,1.0129317045211792,-0.03989902138710022,-0.17034520208835602,0.10356099903583527,-0.45637065172195435
1764808586.937964,6.781585554742812,-0.10587181953042744,-4.279559479683638,0.4113492965698242,-0.1255730241537094,0.4143884778022766,,,,,,
1764808586.944544,,,,,,,-0.2554139494895935,0.9913625717163086,-0.037336140871047974,-0.16454483568668365,0.11175394803285599,-0.6791762709617615
1764808586.948017,6.537192861011624,-0.06687631844282149,-4.030694024452567,0.5242420434951782,-0.14449478685855865,0.5868047475814819,,,,,,
1764808586.954573,,,,,,,-0.24141186475753784,0.9504561424255371,-0.043535828590393066,-0.23562802374362946,0.11762621998786926,-0.9366155862808228
1764808586.958069,6.265631005325913,-0.019886603730916975,-3.7843010968148705,0.6248104572296143,-0.18114493787288666,0.7428331971168518,,,,,,
1764808586.964603,,,,,,,-0.22048598527908325,0.9321491718292236,-0.05300027132034302,-0.2984123229980469,0.10287816822528839,-1.1595269441604614
1764808586.968121,6.03909545532465,-0.05639934809207916,-3.651795245119929,0.720201313495636,-0.21274715662002563,0.8937962055206299,,,,,,
1764808586.974633,,,,,,,-0.2006118893623352,0.9132741689682007,-0.0548396110534668,-0.35232314467430115,0.09515500068664551,-1.3687676191329956
1764808586.978174,5.965843756631016,-0.11304419537782669,-3.5935149055868387,0.8109248280525208,-0.22733888030052185,1.0538610219955444,,,,,,
1764808586.984663,,,,,,,-0.19122916460037231,0.8974537253379822,-0.0575617253780365,-0.3970828950405121,0.11737242341041565,-1.5653488636016846
1764808586.988226,5.975785889452696,-0.08058627936542034,-3.5401550713211294,0.8829554915428162,-0.2564973533153534,1.2252429723739624,,,,,,
1764808586.994693,,,,,,,-0.16633999347686768,0.8664696216583252,-0.054635822772979736,-0.4809977114200592,0.11515187472105026,-1.7441738843917847
1764808586.998278,6.028842941379547,0.15021043521165847,-3.3802141002118584,0.953950047492981,-0.33954164385795593,1.405932068824768,,,,,,
1764808587.004723,,,,,,,-0.12096995115280151,0.8168870210647583,-0.026828140020370483,-0.6155198216438293,0.07308511435985565,-1.938136100769043
1764808587.00833,5.963161970201134,0.4019587524026632,-3.3084096777170893,1.0430816411972046,-0.4522208273410797,1.5685431957244873,,,,,,
1764808587.014753,,,,,,,-0.0866234302520752,0.7602354884147644,0.009394675493240356,-0.7848395109176636,0.05643583461642265,-2.128061294555664
1764808587.018383,5.715631562966108,0.6132499715209007,-3.304894947594404,1.1520684957504272,-0.530393660068512,1.7039673328399658,,,,,,
1764808587.024783,,,,,,,-0.0671381950378418,0.7189059257507324,0.046584248542785645,-0.9086072444915771,0.07858028262853622,-2.30312442779541
1764808587.028435,5.342431872057914,0.8439373805046081,-3.2831425499916076,1.2769190073013306,-0.5602017045021057,1.8289275169372559,,,,,,
1764808587.034814,,,,,,,-0.05571848154067993,0.70332270860672,0.05964338779449463,-0.9613025188446045,0.12652890384197235,-2.46834135055542
1764808587.038487,4.902039928625523,1.0934726978212594,-3.1204806294858454,1.386251449584961,-0.5787405371665955,1.946158766746521,,,,,,
1764808587.044844,,,,,,,-0.04193180799484253,0.7197551727294922,0.046182215213775635,-0.9703913331031799,0.17741765081882477,-2.6222662925720215
1764808587.04854,4.478701411324739,1.283148297458887,-2.8180583561122416,1.4767200946807861,-0.6028756499290466,2.0466785430908203,,,,,,
1764808587.054874,,,,,,,-0.019481778144836426,0.7292139530181885,0.046972811222076416,-0.9030049443244934,0.2519829571247101,-2.7644476890563965
1764808587.058592,4.102096588148177,1.25915893458426,-2.6284727728456256,1.5526431798934937,-0.604109525680542,2.1363353729248047,,,,,,
1764808587.064905,,,,,,,0.009875953197479248,0.7208772897720337,0.04436248540878296,-0.7845315933227539,0.3456306457519531,-2.8658628463745117
1764808587.068644,3.8423119717568155,1.3248866675138473,-2.507748544359207,1.6160095930099487,-0.5520580410957336,2.226409912109375,,,,,,
1764808587.074935,,,,,,,0.057387471199035645,0.6665205955505371,0.02892264723777771,-0.7393338680267334,0.35138413310050964,-2.97770357131958
1764808587.078697,3.6833784241244194,1.5845383051753044,-2.4614585023492572,1.682114839553833,-0.4772176444530487,2.3192551136016846,,,,,,
1764808587.084965,,,,,,,0.09939795732498169,0.5928207039833069,0.04341322183609009,-0.7582870721817017,0.3763733506202698,-3.1168947219848633
1764808587.088749,3.533000231130421,1.6862392687618732,-2.349321484944224,1.7304213047027588,-0.41589030623435974,2.397496223449707,,,,,,
1764808587.094995,,,,,,,0.11979657411575317,0.5619657039642334,0.06605178117752075,-0.7089049816131592,0.45860832929611206,-3.202920436859131
1764808587.098801,3.3437831889152525,1.6937731713980435,-2.1719477329969403,1.7873330116271973,-0.35122182965278625,2.467849016189575,,,,,,
1764808587.105025,,,,,,,0.14183109998703003,0.5692548751831055,0.09159380197525024,-0.4975713789463043,0.6096247434616089,-3.2500357627868652
1764808587.108854,3.1354885212644934,1.949369396188855,-2.0264105502933263,1.8595664501190186,-0.2849176228046417,2.5678553581237793,,,,,,
1764808587.115055,,,,,,,0.1887766718864441,0.5956871509552002,0.09266838431358337,-0.19087521731853485,0.7686785459518433,-3.347268581390381
1764808587.118906,2.915905566880107,2.660009482359886,-1.7705647346556186,1.9302113056182861,-0.28233370184898376,2.7101919651031494,,,,,,
1764808587.125085,,,,,,,0.27329421043395996,0.6108871698379517,0.09918168187141418,0.13934610784053802,0.8824397325515747,-3.5018084049224854
1764808587.128958,2.5732658494085072,3.688500881704688,-1.3321563662558793,2.019605875015259,-0.33020535111427307,2.8706717491149902,,,,,,
1764808587.135115,,,,,,,0.3776732087135315,0.6127588152885437,0.11157462000846863,0.3981838822364807,0.9005843997001648,-3.620527982711792
1764808587.13901,2.0373539691120386,4.603332584121823,-1.114561078557372,2.1633150577545166,-0.35728177428245544,3.024122714996338,,,,,,
1764808587.145145,,,,,,,0.47707390785217285,0.5407702922821045,0.14290133118629456,0.5797246694564819,0.8221074342727661,-3.680182933807373
1764808587.149063,1.3559427539043127,5.1654228617697955,-1.12541915718019,2.339906930923462,-0.2715146839618683,3.1348929405212402,,,,,,
1764808587.155175,,,,,,,0.5375230312347412,0.373455286026001,0.17453470826148987,0.625349760055542,0.7928485870361328,-3.7608742713928223
1764808587.159115,0.5741005219805986,5.240166260325909,-1.1380986060112714,2.4628007411956787,-0.07399125397205353,3.1633188724517822,,,,,,
1764808587.165205,,,,,,,0.5307302474975586,0.2797187268733978,0.17985799908638,0.7106785178184509,0.9113792777061462,-3.7782959938049316
1764808587.169167,-0.12407500021904706,4.908073071309924,-0.7075099714517593,2.4924356937408447,0.14986740052700043,3.114109992980957,,,,,,
1764808587.175235,,,,,,,0.5319972634315491,0.26670414209365845,0.1450132429599762,0.8686729669570923,0.9742975234985352,-3.729872941970825
1764808587.17922,-0.4531061713159084,4.544440250170231,-0.08754910411536693,2.481005907058716,0.293817937374115,3.0430524349212646,,,,,,
1764808587.185266,,,,,,,0.5552390217781067,0.25252455472946167,0.12706688046455383,1.0657562017440796,0.9971908330917358,-3.7389590740203857
1764808587.189272,-0.5161479530971497,4.149076658248901,0.4073421990066767,2.447434902191162,0.36579272150993347,2.9880776405334473,,,,,,
1764808587.195296,,,,,,,0.5629980564117432,0.2194393277168274,0.09999121725559235,1.2306452989578247,1.0188766717910767,-3.7665162086486816
1764808587.199324,-0.5237207995042205,3.7362253404319286,0.5820955393224955,2.4102494716644287,0.43419867753982544,2.952237367630005,,,,,,
1764808587.205326,,,,,,,0.5610801577568054,0.19526000320911407,0.080381840467453,1.3635709285736084,0.9517450332641602,-3.7630181312561035
1764808587.209377,-0.46447011710163205,3.4189369218379255,0.42490123657286166,2.386838674545288,0.49708816409111023,2.939770221710205,,,,,,
1764808587.215356,,,,,,,0.5316135287284851,0.17027422785758972,0.10199043154716492,1.4470562934875488,0.9401752352714539,-3.7559714317321777
1764808587.219429,-0.31380886938255276,3.0579169135451316,0.19388240367770193,2.35315203666687,0.5372015237808228,2.9432737827301025,,,,,,
1764808587.225386,,,,,,,0.47340428829193115,0.1512918919324875,0.12510503828525543,1.4573100805282593,0.9285100102424622,-3.722339153289795
1764808587.229481,-0.16615812859106807,2.7662796535581347,-0.07250526424050331,2.330310106277466,0.5439126491546631,2.9462640285491943,,,,,,
1764808587.235416,,,,,,,0.43242037296295166,0.10749205946922302,0.17127245664596558,1.4470456838607788,0.9499927163124084,-3.700979471206665
1764808587.239533,-0.05324139551781117,2.5458833369642493,-0.4434852332726121,2.2918825149536133,0.5076966285705566,2.9322385787963867,,,,,,
1764808587.245446,,,,,,,0.4141744375228882,0.0715375691652298,0.2044857144355774,1.3970328569412231,1.0383312702178955,-3.6482083797454834
1764808587.249586,-0.06945500982441008,2.571466691032052,-0.5849851232841611,2.23756742477417,0.4520128667354584,2.8932254314422607,,,,,,
1764808587.255476,,,,,,,0.4734466075897217,0.0292818620800972,0.21914103627204895,1.2323304414749146,0.9002075791358948,-3.6027140617370605
1764808587.259638,-0.1604814346615225,3.125304104119539,-0.7445937936991452,2.2273306846618652,0.42174679040908813,2.8462448120117188,,,,,,
1764808587.265506,,,,,,,0.5274640321731567,-0.043270841240882874,0.25127899646759033,0.9936879873275757,0.7559731602668762,-3.571758270263672
1764808587.26969,-0.25680969223380085,3.516839662185311,-0.9735790749400853,2.2519145011901855,0.4012737274169922,2.8008923530578613,,,,,,
1764808587.275536,,,,,,,0.48881715536117554,-0.11310108006000519,0.26467251777648926,0.7730023860931396,0.7099081873893738,-3.4628896713256836
1764808587.279743,-0.466773754401505,3.445594627138972,-1.0348939598634839,2.3015780448913574,0.4280312955379486,2.7340118885040283,,,,,,
1764808587.285566,,,,,,,0.40218740701675415,-0.17029255628585815,0.2614366412162781,0.5491820573806763,0.7565012574195862,-3.3267500400543213
1764808587.289795,-0.7216570086173713,2.9574095436573025,-1.0130220275342463,2.2845847606658936,0.4404674768447876,2.6368088722229004,,,,,,
1764808587.295596,,,,,,,0.3351452350616455,-0.22382423281669617,0.2290627360343933,0.32850000262260437,0.9632978439331055,-3.154582977294922
1764808587.299847,-0.9173026225753128,2.435146249485016,-0.39308834046572444,2.131068468093872,0.32910749316215515,2.4878430366516113,,,,,,
1764808587.305626,,,,,,,0.3849440813064575,-0.2466605007648468,0.20300501585006714,0.10769625753164291,0.988434374332428,-3.0239462852478027
1764808587.3099,-1.0511308089151978,2.4359780241340396,0.39345921960473057,1.9546915292739868,0.12218335270881653,2.289761543273926,,,,,,
1764808587.315657,,,,,,,0.508779764175415,-0.23774081468582153,0.20021981000900269,-0.051867272704839706,0.8418363928794861,-2.916767120361328
1764808587.319952,-1.0952581199333071,2.778189287060499,0.5543602679178118,1.8819553852081299,-0.11087630689144135,2.0939934253692627,,,,,,
1764808587.325687,,,,,,,0.5601871609687805,-0.2559928894042969,0.19725829362869263,-0.18339760601520538,0.6945981979370117,-2.800999402999878
1764808587.330004,-1.123224277484417,3.1745828065514563,0.31032384027838705,1.9266301393508911,-0.2793672978878021,1.9409292936325073,,,,,,
1764808587.335717,,,,,,,0.47859376668930054,-0.2977333962917328,0.210189089179039,-0.3040708005428314,0.6822400689125061,-2.6739020347595215
1764808587.340056,-1.2748580234974622,3.274346664595604,0.03538052546083927,2.0174756050109863,-0.32257264852523804,1.839010238647461,,,,,,
1764808587.345747,,,,,,,0.32381582260131836,-0.31493279337882996,0.22774052619934082,-0.3216783106327057,0.9445611834526062,-2.4987616539001465
1764808587.350109,-1.6313418496653436,2.8719986206144092,-0.01353884213939309,2.017936944961548,-0.28405454754829407,1.7420871257781982,,,,,,
1764808587.355777,,,,,,,0.2359713315963745,-0.2589980661869049,0.19870340824127197,-0.17817749083042145,1.3097273111343384,-2.275977373123169
1764808587.360161,-2.1150375127732755,2.6845629088580605,0.5549938896462321,1.9266167879104614,-0.2048340141773224,1.613407015800476,,,,,,
1764808587.365807,,,,,,,0.3332100510597229,-0.17263376712799072,0.1408124566078186,0.0825563594698906,1.4032580852508545,-2.157473087310791
1764808587.370213,-2.4682798728019,3.2276118014276025,1.0635787870779634,1.846211552619934,-0.11299650371074677,1.4937514066696167,,,,,,
1764808587.375837,,,,,,,0.5280502438545227,-0.12662792205810547,0.07412702590227127,0.37617984414100647,1.275311827659607,-2.1109039783477783
1764808587.380266,-2.5460028716906904,4.006522290748357,1.2836508401535451,1.8207991123199463,-0.02981506660580635,1.4323705434799194,,,,,,
1764808587.385867,,,,,,,0.6454108357429504,-0.1316603720188141,0.017198987305164337,0.6515323519706726,1.0658864974975586,-2.0558536052703857
