timestamp,phone_accel_x,phone_accel_y,phone_accel_z,phone_gyro_x,phone_gyro_y,phone_gyro_z,watch_accel_x,watch_accel_y,watch_accel_z,watch_gyro_x,watch_gyro_y,watch_gyro_z
1764808628.423942,-0.5794418830085546,2.9389538495123384,-0.5229755340948701,1.8535916805267334,-0.26100122928619385,2.9598541259765625,,,,,,
1764808628.42895,,,,,,,0.2847980260848999,0.05275130271911621,0.17541144788265228,0.20378823578357697,0.6457915306091309,-3.5457983016967773
1764808628.433995,-0.6244099556997418,2.1903093191176652,-0.22202421005666254,1.816419243812561,-0.20680509507656097,2.955183982849121,,,,,,
1764808628.438981,,,,,,,0.22747790813446045,0.14748188853263855,0.1447232961654663,0.40282508730888367,1.0381441116333008,-3.6076650619506836
1764808628.444047,-0.5065762610230594,2.318658635655045,0.2199222693413496,1.692483901977539,-0.21123571693897247,2.935143232345581,,,,,,
1764808628.449011,,,,,,,0.31635820865631104,0.24081046879291534,0.10662508010864258,0.6432632803916931,1.3023903369903564,-3.6100683212280273
1764808628.454099,-0.28840774001386016,3.5452836663812395,0.5076809343293309,1.5850175619125366,-0.2921731770038605,2.942803382873535,,,,,,
1764808628.459041,,,,,,,0.5348871350288391,0.2646457254886627,0.08629219979047775,0.8433048725128174,1.1873021125793457,-3.612379550933838
1764808628.464152,-0.1165286308269482,4.978007023757696,0.4201052344679832,1.580257534980774,-0.43284857273101807,3.011303186416626,,,,,,
1764808628.469071,,,,,,,0.7415876984596252,0.17416542768478394,0.10359936952590942,0.9496493935585022,0.75271075963974,-3.6157991886138916
1764808628.474204,-0.32644400414787234,5.73893995783925,-0.07286445294171572,1.7026550769805908,-0.4826606214046478,3.114206314086914,,,,,,
1764808628.479101,,,,,,,0.815772294998169,-0.02170053869485855,0.16444003582000732,0.9638749361038208,0.3510240614414215,-3.6633033752441406
1764808628.484256,-0.9565496142059564,5.407469869157672,-0.565643293954432,1.88801908493042,-0.35983777046203613,3.189844846725464,,,,,,
1764808628.489131,,,,,,,0.6927018165588379,-0.20017006993293762,0.24401211738586426,0.699126124382019,0.2037363499403,-3.7101118564605713
1764808628.494309,-1.7242527730748056,4.190291296690702,-0.47398061704039574,2.020824670791626,-0.15692861378192902,3.177978754043579,,,,,,
1764808628.499161,,,,,,,0.4631474018096924,-0.25142914056777954,0.2887035012245178,0.398118257522583,0.3318330645561218,-3.6592650413513184
1764808628.504361,-2.275441132958233,2.6165759988248345,-0.005676584331691265,2.04585337638855,0.00018315727356821299,3.062851667404175,,,,,,
1764808628.509191,,,,,,,0.27325761318206787,-0.21318067610263824,0.27394580841064453,0.21123947203159332,0.8051292300224304,-3.5451009273529053
1764808628.514413,-2.4836761793762445,1.8086276310682297,0.7943515118196606,1.9310381412506104,0.04472292587161064,2.8545451164245605,,,,,,
1764808628.519221,,,,,,,0.24992406368255615,-0.10314230620861053,0.2108251452445984,0.20964530110359192,1.306825876235962,-3.384702444076538
1764808628.524466,-2.186161844049394,2.2885160108476876,1.2383891182780264,1.8195198774337769,-0.005266735330224037,2.6483561992645264,,,,,,
1764808628.529251,,,,,,,0.4108315706253052,-0.03258681297302246,0.13763219118118286,0.34852755069732666,1.3134264945983887,-3.3721392154693604
1764808628.534518,-1.5282098303623497,3.1234242817223072,1.3288263450503348,1.7998970746994019,-0.15307004749774933,2.5393526554107666,,,,,,
1764808628.539281,,,,,,,0.5962054133415222,-0.06099051237106323,0.08443647623062134,0.49271145462989807,1.0050010681152344,-3.439964771270752
1764808628.54457,-0.9287488763496279,3.6142496505796906,1.4047256356433033,1.8265609741210938,-0.35533061623573303,2.5314319133758545,,,,,,
1764808628.549312,,,,,,,0.6602457165718079,-0.14049318432807922,0.05537146329879761,0.5223543047904968,0.7592214345932007,-3.421290397644043
1764808628.554623,-0.6744803930312395,3.651262745678425,1.4103376303061843,1.8462483882904053,-0.538561999797821,2.557950496673584,,,,,,
1764808628.559342,,,,,,,0.6049644947052002,-0.20453760027885437,0.016004562377929688,0.5335407853126526,0.6511258482933044,-3.321638584136963
1764808628.564675,-0.8589522865459323,3.2409932610481977,1.0558464392602442,1.8643581867218018,-0.6042736768722534,2.5798606872558594,,,,,,
1764808628.569372,,,,,,,0.4851806163787842,-0.2511160671710968,-0.00449681282043457,0.5100357532501221,0.619044303894043,-3.2454466819763184
1764808628.574728,-1.2887740283861755,2.4135405668765304,0.5573557964719832,1.8967195749282837,-0.5305991768836975,2.5783615112304688,,,,,,
1764808628.579402,,,,,,,0.35373324155807495,-0.2578049898147583,0.04113507270812988,0.4611479341983795,0.6347415447235107,-3.1532552242279053
1764808628.58478,-1.6846368020012974,1.4104986660867929,0.44637934727892276,1.8940486907958984,-0.37271368503570557,2.5296804904937744,,,,,,
1764808628.589432,,,,,,,0.2525749206542969,-0.2561270296573639,0.08303320407867432,0.4742349684238434,0.8107165694236755,-2.9911770820617676
1764808628.594832,-2.005457486374676,0.9327812006056309,1.0147861145973205,1.771756649017334,-0.21642446517944336,2.4056801795959473,,,,,,
1764808628.599462,,,,,,,0.2141438126564026,-0.22252553701400757,0.09084486961364746,0.4604807198047638,1.184829592704773,-2.7847952842712402
1764808628.604884,-2.1886934083536267,1.5992191569566725,1.8095663732230662,1.5764062404632568,-0.12496992945671082,2.2262957096099854,,,,,,
1764808628.609492,,,,,,,0.33121776580810547,-0.15279242396354675,0.023871421813964844,0.557045578956604,1.3767389059066772,-2.644094705581665
1764808628.614937,-2.079531607367098,2.936278492823243,2.0200246486485005,1.4522526264190674,-0.13792061805725098,2.0798721313476562,,,,,,
1764808628.619522,,,,,,,0.5602758526802063,-0.12832766771316528,-0.03632092475891113,0.7469633221626282,1.1296616792678833,-2.613873243331909
1764808628.624989,-1.8290253991916774,3.943694955435395,1.92095637165308,1.434111475944519,-0.22495441138744354,2.009464979171753,,,,,,
1764808628.629552,,,,,,,0.734296977519989,-0.16211676597595215,-0.062308188527822495,0.935185432434082,0.680597722530365,-2.548586130142212
1764808628.635042,-1.7203607340723275,4.222509558728337,1.874914751446247,1.4559674263000488,-0.2899893522262573,2.004754066467285,,,,,,
1764808628.639582,,,,,,,0.7412106394767761,-0.23892873525619507,-0.04392706975340843,1.0023514032363892,0.39759954810142517,-2.4627256393432617
1764808628.645094,-1.8035101419240236,3.8427544548273085,1.8441525334358215,1.4772626161575317,-0.2711125910282135,2.022817611694336,,,,,,
1764808628.649613,,,,,,,0.5876317024230957,-0.3021446466445923,-0.0019458495080471039,0.9062163233757019,0.35883432626724243,-2.401073932647705
1764808628.655146,-2.052267168344557,3.185173174148798,1.694950983005762,1.4978004693984985,-0.17429320514202118,2.024484395980835,,,,,,
1764808628.659643,,,,,,,0.4156137704849243,-0.3428272604942322,0.03380763530731201,0.7311944365501404,0.4309615194797516,-2.312021493911743
1764808628.665199,-2.3741408689022063,2.4232927300840617,1.5312053589165209,1.5347832441329956,-0.044285405427217484,1.983055830001831,,,,,,
1764808628.669673,,,,,,,0.30830711126327515,-0.375876247882843,0.04575968161225319,0.5485191941261292,0.499488890171051,-2.239837646484375
1764808628.675251,-2.683314662362635,1.6254250268369912,1.5253145473122596,1.567873239517212,0.061079055070877075,1.8872907161712646,,,,,,
1764808628.679703,,,,,,,0.2507202625274658,-0.3840652108192444,0.04245162010192871,0.38523808121681213,0.5512378215789795,-2.182758092880249
1764808628.685303,-2.810491135728359,0.9368938966214656,1.7753788569390774,1.5603777170181274,0.11117897182703018,1.7559292316436768,,,,,,
1764808628.689733,,,,,,,0.2162775993347168,-0.3657943606376648,0.03958594426512718,0.27984029054641724,0.6131653785705566,-2.1046130657196045
1764808628.695356,-2.7943057246029377,0.48172202494740485,2.0605670869171617,1.4985905885696411,0.13541926443576813,1.5986547470092773,,,,,,
1764808628.699763,,,,,,,0.20085424184799194,-0.3241482377052307,0.02070450410246849,0.24196667969226837,0.7306451797485352,-1.9881266355514526
1764808628.705408,-2.633165899097919,0.49362464418709273,2.132662601312995,1.4137142896652222,0.1995054930448532,1.4410629272460938,,,,,,
1764808628.709793,,,,,,,0.21973013877868652,-0.2768403887748718,-0.02958548069000244,0.32546690106391907,0.851557195186615,-1.8369070291519165
1764808628.71546,-2.348162378036976,0.8675818754643201,1.9824054043501613,1.3216922283172607,0.3036622703075409,1.307464599609375,,,,,,
1764808628.719823,,,,,,,0.27386045455932617,-0.254491925239563,-0.07761907577514648,0.5216313600540161,0.860224187374115,-1.685954213142395
1764808628.725513,-2.0128589948028326,1.203233049222827,1.7712100468218326,1.241577386856079,0.43821820616722107,1.2164503335952759,,,,,,
1764808628.729853,,,,,,,0.32809269428253174,-0.26137471199035645,-0.10051405429840088,0.738351583480835,0.7645948529243469,-1.5517758131027222
1764808628.735565,-1.7993021688401698,1.227464988681674,1.6269763479322195,1.1647133827209473,0.5644108057022095,1.1635005474090576,,,,,,
1764808628.739883,,,,,,,0.3381633758544922,-0.28637081384658813,-0.08912992477416992,0.902658224105835,0.6539807319641113,-1.4055455923080444
1764808628.745617,-1.7510680070251226,0.9633119479477404,1.5138129100888966,1.0885549783706665,0.6608630418777466,1.1234577894210815,,,,,,
1764808628.749913,,,,,,,0.292427122592926,-0.3147851824760437,-0.06002485752105713,0.9713645577430725,0.5822641849517822,-1.2513935565948486
1764808628.75567,-1.9031682015061377,0.586367225292325,1.3356862939476966,1.0199849605560303,0.7284793257713318,1.066982388496399,,,,,,
1764808628.759944,,,,,,,0.22606134414672852,-0.3414842486381531,-0.0305635966360569,0.9922399520874023,0.551936686038971,-1.0878989696502686
1764808628.765722,-2.131632673743367,0.2034264770925045,1.2314438291847705,0.9502942562103271,0.7644778490066528,0.9664561152458191,,,,,,
1764808628.769974,,,,,,,0.16035610437393188,-0.3705770969390869,-0.0076313018798828125,0.9732620120048523,0.5732685923576355,-0.9286915063858032
1764808628.775774,-2.303632915958762,-0.01092529864013195,1.2059382895935327,0.8753026127815247,0.7755538821220398,0.8142532110214233,,,,,,
1764808628.780004,,,,,,,0.12042593955993652,-0.37953078746795654,-0.00042033568024635315,0.9226563572883606,0.6302943229675293,-0.7806970477104187
1764808628.785827,-2.2747616262614727,0.002234627184271812,1.2451017676591873,0.798385500907898,0.7625789642333984,0.6341190934181213,,,,,,
1764808628.790034,,,,,,,0.1150938868522644,-0.3752793073654175,-0.006020065397024155,0.8690099120140076,0.6721720099449158,-0.6407575607299805
1764808628.795879,-2.0883289540678263,0.12049451138377189,1.2415449519604445,0.7244427800178528,0.7257504463195801,0.46223145723342896,,,,,,
1764808628.800064,,,,,,,0.13383376598358154,-0.3750811219215393,-0.009478803724050522,0.8127615451812744,0.6575360894203186,-0.5266124606132507
1764808628.805931,-1.7872154252052306,0.2537362761378288,1.2296043387979267,0.656633198261261,0.6722134947776794,0.3208083510398865,,,,,,
1764808628.810094,,,,,,,0.1626267433166504,-0.3687629699707031,-0.0068368930369615555,0.7387043833732605,0.6056147813796997,-0.41317909955978394
1764808628.815984,-1.4987532881230115,0.39944647732079025,1.1436089669305831,0.599396824836731,0.6113701462745667,0.21826572716236115,,,,,,
1764808628.820124,,,,,,,0.1804141402244568,-0.3524095416069031,-0.0029556751251220703,0.6695579290390015,0.5366389155387878,-0.28351452946662903
1764808628.826036,-1.325172498717904,0.4880974051982164,0.9716361972440034,0.5586981177330017,0.5539920330047607,0.14689461886882782,,,,,,
1764808628.830154,,,,,,,0.17715495824813843,-0.33748918771743774,-0.004526142030954361,0.6443063616752625,0.4676617383956909,-0.1555701345205307
1764808628.836088,-1.2845523190379142,0.4484001855820417,0.8537580058384686,0.5234273672103882,0.5079352259635925,0.08385474979877472,,,,,,
1764808628.840184,,,,,,,0.14944535493850708,-0.33045798540115356,-0.002418162301182747,0.612588107585907,0.42864614725112915,-0.06454135477542877
1764808628.846141,-1.384248372542858,0.31582185317277905,0.7984183228671551,0.4843476414680481,0.4763653874397278,0.015064623206853867,,,,,,
1764808628.850214,,,,,,,0.10921388864517212,-0.31371021270751953,0.011178132146596909,0.54348224401474,0.4315687119960785,0.014777704142034054
1764808628.856193,-1.5377859063506125,0.142488316527009,0.808159380158782,0.43270522356033325,0.4571056663990021,-0.077871173620224,,,,,,
1764808628.860244,,,,,,,0.08244949579238892,-0.2928597331047058,0.01899993233382702,0.4622898995876312,0.48994094133377075,0.1177339181303978
1764808628.866245,-1.674558767840266,0.1448714122712612,0.8292536791790276,0.37105217576026917,0.46366989612579346,-0.1911585032939911,,,,,,
1764808628.870274,,,,,,,0.08059793710708618,-0.2656724452972412,0.018435003235936165,0.40912842750549316,0.545128583908081,0.23092038929462433
1764808628.876298,-1.6788292847663162,0.34573008470237254,0.7150099718183278,0.3161183297634125,0.4955418109893799,-0.29873237013816833,,,,,,
1764808628.880305,,,,,,,0.10502934455871582,-0.2396097183227539,0.00019562430679798126,0.4085250496864319,0.5546424388885498,0.3077682852745056
1764808628.88635,-1.5344465327948331,0.6153969204217196,0.6430266856253146,0.2559249997138977,0.5229370594024658,-0.3757517635822296,,,,,,
1764808628.890335,,,,,,,0.1364690065383911,-0.20644384622573853,-0.00880897045135498,0.41668203473091125,0.5293205976486206,0.3671005964279175
1764808628.896402,-1.319682084608078,0.8449608783334494,0.6247252321939915,0.1965854912996292,0.5313271284103394,-0.42015835642814636,,,,,,
1764808628.900365,,,,,,,0.17025691270828247,-0.1683734655380249,-0.009937167167663574,0.42782071232795715,0.4675551950931549,0.42857301235198975
1764808628.906455,-1.1123644452959298,0.9974497798711061,0.5387660276185721,0.1534198522567749,0.5205826759338379,-0.4351000189781189,,,,,,
1764808628.910395,,,,,,,0.18774092197418213,-0.14558708667755127,-0.0022232551127672195,0.4423027038574219,0.3797268271446228,0.47529977560043335
1764808628.916507,-0.9479448674678802,1.0608300728917122,0.4360604170341044,0.13614632189273834,0.4967876672744751,-0.42955610156059265,,,,,,
1764808628.920425,,,,,,,0.17863887548446655,-0.13709604740142822,0.014057276770472527,0.44238343834877014,0.3062446117401123,0.49622833728790283
1764808628.926559,-0.8738502882093191,1.0227513943880795,0.39526539224386215,0.13346295058727264,0.4594067633152008,-0.4242485761642456,,,,,,
1764808628.930455,,,,,,,0.1479007601737976,-0.13560158014297485,0.032015323638916016,0.38832128047943115,0.2818963825702667,0.49288180470466614
1764808628.936612,-0.8782897319614886,0.924655177295208,0.4278542411595583,0.1392073780298233,0.4106656014919281,-0.4299381375312805,,,,,,
1764808628.940485,,,,,,,0.11297929286956787,-0.13568395376205444,0.04609107971191406,0.2957404851913452,0.30237582325935364,0.4840461313724518
1764808628.946664,-0.9041191697448492,0.8667489317715168,0.44324813658110795,0.15459325909614563,0.356391578912735,-0.43686187267303467,,,,,,
1764808628.950515,,,,,,,0.09298092126846313,-0.13572287559509277,0.05043768882751465,0.19372998178005219,0.3231660723686218,0.47203367948532104
1764808628.956716,-0.8764981723695993,0.7999690594404936,0.47183023407347496,0.16586348414421082,0.30722108483314514,-0.4437123239040375,,,,,,
1764808628.960545,,,,,,,0.08913159370422363,-0.1341223120689392,0.03710818290710449,0.10801772773265839,0.3325861990451813,0.45622506737709045
1764808628.966769,-0.8891951568573713,0.7458049230545759,0.5447101037800312,0.1592603325843811,0.2664971947669983,-0.4512372314929962,,,,,,
1764808628.970575,,,,,,,0.09585016965866089,-0.12877637147903442,0.022373199462890625,0.024354254826903343,0.33176007866859436,0.42680591344833374
1764808628.976821,-0.8899784161895513,0.6994137587577104,0.5650935511171817,0.13974708318710327,0.23657764494419098,-0.45474007725715637,,,,,,
1764808628.980606,,,,,,,0.10845887660980225,-0.11004793643951416,0.008049368858337402,-0.04423236474394798,0.31240981817245483,0.3996928334236145
1764808628.986873,-0.842798147341609,0.6613444326043129,0.5017121621180325,0.10773071646690369,0.2212706059217453,-0.45505771040916443,,,,,,
1764808628.990636,,,,,,,0.11969649791717529,-0.08160781860351562,-0.0015412569046020508,-0.05812394618988037,0.27349144220352173,0.4048524498939514
1764808628.996926,-0.8063198897719382,0.6207201612710952,0.38535723475702105,0.07816217094659805,0.23188516497612,-0.45301586389541626,,,,,,
1764808629.000666,,,,,,,0.12236267328262329,-0.057448387145996094,-0.007420063018798828,-0.019852949306368828,0.22850240767002106,0.4227379560470581
1764808629.006978,-0.6875251680433749,0.6218915431380272,0.21610351477079093,0.06425338983535767,0.2638704478740692,-0.4491659104824066,,,,,,
1764808629.010696,,,,,,,0.1082729697227478,-0.043459415435791016,0.0008702259510755539,0.018246764317154884,0.19697564840316772,0.4258866012096405
1764808629.01703,-0.5800900447189807,0.6387614293962717,0.09715922850370406,0.059800583869218826,0.29826998710632324,-0.4414139688014984,,,,,,
1764808629.020726,,,,,,,0.08246243000030518,-0.034442901611328125,0.019368167966604233,0.039893489331007004,0.19222456216812134,0.4330442547798157
1764808629.027083,-0.46712651336193084,0.6003858137726783,0.031311668586730956,0.073288694024086,0.32316654920578003,-0.4339275658130646,,,,,,
1764808629.030756,,,,,,,0.05969351530075073,-0.035878121852874756,0.02902066335082054,0.05473475530743599,0.197872593998909,0.4374088943004608
1764808629.037135,-0.370932915019989,0.4928694419056177,0.02615435888879001,0.09505730122327805,0.3201908469200134,-0.42669570446014404,,,,,,
1764808629.040786,,,,,,,0.0404171347618103,-0.041062355041503906,0.031697750091552734,0.026167290285229683,0.21169333159923553,0.4210166037082672
1764808629.047187,-0.2891156325548887,0.3773106333583593,0.11635375831723213,0.11087461560964584,0.29047128558158875,-0.42165860533714294,,,,,,
1764808629.050816,,,,,,,0.0265505313873291,-0.03802525997161865,0.033873915672302246,-0.03799331933259964,0.23271898925304413,0.4032360315322876
1764808629.05724,-0.2323340071469545,0.27468787875175477,0.10228840808570384,0.12188013643026352,0.25813958048820496,-0.4200322926044464,,,,,,
1764808629.060846,,,,,,,0.024172186851501465,-0.03685694932937622,0.032137397676706314,-0.0838126689195633,0.24012231826782227,0.3920990228652954
1764808629.067292,-0.20175357544422148,0.17800035941302775,0.030814824980497358,0.12736785411834717,0.22826609015464783,-0.4247484803199768,,,,,,
1764808629.070876,,,,,,,0.024967610836029053,-0.03862178325653076,0.022997140884399414,-0.11144882440567017,0.24549870193004608,0.37657812237739563
1764808629.077344,-0.14326631516218186,0.13942775991261006,0.07699198120050132,0.1188407838344574,0.20073938369750977,-0.4314493238925934,,,,,,
1764808629.080906,,,,,,,0.023025810718536377,-0.03118187189102173,0.017933249473571777,-0.13422252237796783,0.26631662249565125,0.3622302711009979
1764808629.087397,-0.06333645387887954,0.1449158359348774,0.07098083115220069,0.10989256203174591,0.1797185242176056,-0.43045487999916077,,,,,,
1764808629.090937,,,,,,,0.025106608867645264,-0.011140286922454834,0.016446944326162338,-0.1176890879869461,0.27500519156455994,0.3648359179496765
1764808629.097449,-0.0027168577432632444,0.18786065917015074,-0.061200683959200974,0.10559213161468506,0.16841083765029907,-0.42232057452201843,,,,,,
1764808629.100967,,,,,,,0.030690670013427734,0.004991352558135986,0.011613961309194565,-0.03417995572090149,0.2518942654132843,0.3716422915458679
1764808629.107501,0.014164134430885314,0.20711890186965465,-0.15050094259083271,0.10445879399776459,0.16702425479888916,-0.4040811061859131,,,,,,
1764808629.110997,,,,,,,0.030588746070861816,0.014165818691253662,0.0077713727951049805,0.051480621099472046,0.2342681586742401,0.3666544556617737
1764808629.117554,-0.010457681128382683,0.1942413001179695,-0.13194865620359778,0.09968134760856628,0.1722981035709381,-0.3873940110206604,,,,,,
1764808629.121027,,,,,,,0.021832823753356934,0.030823230743408203,0.01168525218963623,0.10216105729341507,0.2409026175737381,0.3668019473552704
1764808629.127606,-0.044700142470002174,0.18149872292280195,-0.12449779220838099,0.09796121716499329,0.18010783195495605,-0.3704882860183716,,,,,,
1764808629.131058,,,,,,,0.0140724778175354,0.04090440273284912,0.017852306365966797,0.13901415467262268,0.24700018763542175,0.3696991801261902
1764808629.137658,-0.05604688139259815,0.18411036672592163,-0.15812318109758197,0.09719926118850708,0.19256079196929932,-0.35381555557250977,,,,,,
1764808629.141088,,,,,,,0.012625455856323242,0.038391709327697754,0.008598692715168,0.17349670827388763,0.2557494640350342,0.3654933571815491
1764808629.147711,-0.04154723139703274,0.232495335188508,-0.05869242746531963,0.08924546837806702,0.1940535008907318,-0.34059643745422363,,,,,,
1764808629.151117,,,,,,,0.018416166305541992,0.032162249088287354,-0.0004881620407104492,0.17899374663829803,0.2763144075870514,0.34235289692878723
1764808629.157763,0.00019873744249343872,0.3352916927963495,0.07871756288409233,0.07669445872306824,0.18542836606502533,-0.32393959164619446,,,,,,
1764808629.161147,,,,,,,0.03319734334945679,0.024724066257476807,0.0022573433816432953,0.13695880770683289,0.2683539390563965,0.30137544870376587
1764808629.167815,0.06400690048635005,0.36317397145628927,0.0727752402883023,0.07828756421804428,0.16358937323093414,-0.303610622882843,,,,,,
1764808629.171177,,,,,,,0.047868967056274414,0.017570674419403076,0.00913809984922409,0.09330560266971588,0.22442218661308289,0.27781713008880615
1764808629.177868,0.08701251302063465,0.34618250464498995,-0.003096870036795735,0.09417575597763062,0.1366494596004486,-0.2779194116592407,,,,,,
1764808629.181207,,,,,,,0.053277432918548584,-0.000817418098449707,0.006471272557973862,0.06757041811943054,0.1809500753879547,0.2525114417076111
1764808629.18792,0.0753729286313057,0.32557109377086163,0.014690715588256716,0.10634826868772507,0.10514321178197861,-0.2538071572780609,,,,,,
1764808629.191237,,,,,,,0.0424351692199707,-0.017980754375457764,0.004936452955007553,0.023046361282467842,0.16716501116752625,0.19967618584632874
1764808629.197972,0.04539046282172203,0.22873802848160266,0.12568272767663002,0.11011318862438202,0.07218611985445023,-0.239068865776062,,,,,,
1764808629.201268,,,,,,,0.02067047357559204,-0.016927063465118408,0.012881286442279816,-0.050620533525943756,0.17776919901371002,0.1690158098936081
1764808629.208025,0.0053320086777210235,0.10979892984628677,0.1352695442546159,0.12252245098352432,0.04376086965203285,-0.23313160240650177,,,,,,
1764808629.211298,,,,,,,0.009038984775543213,-0.005967974662780762,0.012203820049762726,-0.06893216073513031,0.18462523818016052,0.1786109060049057
1764808629.218077,-0.012669511958956717,0.03669745327830314,0.10416654998250305,0.12735363841056824,0.032601404935121536,-0.23006127774715424,,,,,,
1764808629.221328,,,,,,,0.004896879196166992,-0.0010199546813964844,-0.001274697482585907,-0.04712880030274391,0.19695620238780975,0.17613843083381653
1764808629.228129,-0.03424363038539886,0.029881343522667882,0.14890285974442957,0.11344899982213974,0.03174040466547012,-0.2288316935300827,,,,,,
1764808629.231359,,,,,,,0.004922688007354736,0.0028295516967773438,-0.011340975761413574,-0.03363616019487381,0.2150220274925232,0.1679912954568863
1764808629.238182,-0.03780570678114891,0.0679436554133892,0.17836627011597156,0.1022224873304367,0.04214441031217575,-0.23147091269493103,,,,,,
1764808629.241388,,,,,,,0.014796674251556396,0.0003452301025390625,-0.011614922434091568,-0.0024609200190752745,0.20526553690433502,0.18485316634178162
1764808629.248234,-0.056195934474468225,0.054665071645379065,0.11884089895784854,0.09991458803415298,0.057879697531461716,-0.23326800763607025,,,,,,
1764808629.251418,,,,,,,0.02725958824157715,-0.015291810035705566,-0.013348348438739777,0.03133406117558479,0.17592895030975342,0.19236859679222107
1764808629.258286,-0.08224106083512306,0.023401333853602407,0.14798114178963004,0.09874911606311798,0.07422897219657898,-0.23827271163463593,,,,,,
1764808629.261448,,,,,,,0.024949252605438232,-0.024054884910583496,-0.011894941329956055,0.019238874316215515,0.16291727125644684,0.19392621517181396
1764808629.268339,-0.09472469483315944,-0.026511574828624724,0.21031908615045247,0.09807134419679642,0.08666007965803146,-0.24582357704639435,,,,,,
1764808629.271478,,,,,,,0.01393657922744751,-0.024445950984954834,-0.006691448390483856,0.0028377973940223455,0.16784173250198364,0.21008600294589996
1764808629.278391,-0.10767945347428322,-0.0681441464215517,0.19670155275166035,0.10298558324575424,0.09952180832624435,-0.2540915310382843,,,,,,
1764808629.281508,,,,,,,0.002081573009490967,-0.02726811170578003,-0.005159243941307068,-0.004233142361044884,0.1797947883605957,0.2312694638967514
1764808629.288443,-0.08306815930902957,-0.11351181288957596,0.16180091976225375,0.11535961180925369,0.12193236500024796,-0.2622932195663452,,,,,,
1764808629.291538,,,,,,,-0.010158121585845947,-0.024147510528564453,-0.006078600883483887,-0.01133765745908022,0.19378331303596497,0.2382245808839798
1764808629.298496,-0.04638298099040985,-0.16318272950947282,0.1628091469567269,0.12295281887054443,0.1432267427444458,-0.27067792415618896,,,,,,
1764808629.301569,,,,,,,-0.01889568567276001,-0.02059537172317505,-0.0072966814041137695,-0.006509670056402683,0.2142968475818634,0.24236486852169037
1764808629.308548,-0.028527590826153755,-0.22200842796564102,0.2116950506787747,0.12628549337387085,0.15527568757534027,-0.2802245616912842,,,,,,
1764808629.3116,,,,,,,-0.02301245927810669,-0.018447160720825195,-0.009502887725830078,0.008019737899303436,0.23397867381572723,0.25423669815063477
1764808629.3186,-0.0016927753925323485,-0.2515250298291445,0.17391740094833075,0.1283733993768692,0.17023399472236633,-0.29261061549186707,,,,,,
1764808629.32163,,,,,,,-0.020572960376739502,-0.011009275913238525,-0.013361826539039612,0.042648013681173325,0.24663028120994568,0.2736540138721466
1764808629.328653,0.039459903728961944,-0.2707417714744806,0.11285707530789077,0.12558096647262573,0.19223225116729736,-0.30298301577568054,,,,,,
1764808629.331659,,,,,,,-0.01589864492416382,-0.004968047142028809,-0.023197531700134277,0.10034486651420593,0.25032752752304077,0.28625714778900146
1764808629.338705,0.08997048604339361,-0.29579905584156513,0.1268809244852513,0.11105501651763916,0.21037210524082184,-0.3151123821735382,,,,,,
1764808629.341689,,,,,,,-0.01576411724090576,0.00023293495178222656,-0.026177287101745605,0.1328272819519043,0.26223933696746826,0.2932874262332916
1764808629.348757,0.15341624551564453,-0.2906055788516998,0.14103161491267382,0.09909848868846893,0.21856719255447388,-0.32125627994537354,,,,,,
1764808629.351719,,,,,,,-0.01902472972869873,0.006987631320953369,-0.01677560806274414,0.14659050107002258,0.26850202679634094,0.3099620044231415
1764808629.35881,0.18892770387977362,-0.2798708343476057,0.05963927986137569,0.0963253378868103,0.21558019518852234,-0.32121020555496216,,,,,,
1764808629.361749,,,,,,,-0.01798558235168457,0.00402522087097168,-0.015331864356994629,0.1632176786661148,0.2526698112487793,0.32229745388031006
1764808629.368862,0.19631869091391563,-0.26573066531419753,-0.002711597046256065,0.1001855656504631,0.21265606582164764,-0.31960567831993103,,,,,,
1764808629.371779,,,,,,,-0.01815950870513916,-0.0003960132598876953,-0.016301147639751434,0.16581052541732788,0.23368039727210999,0.3223283290863037
1764808629.378914,0.19823709175586698,-0.29692542952299117,-0.01289864453971386,0.10602667927742004,0.20790551602840424,-0.3159840703010559,,,,,,
1764808629.381809,,,,,,,-0.02245640754699707,-0.0028898119926452637,-0.013792626559734344,0.16422048211097717,0.21580712497234344,0.32685697078704834
1764808629.388967,0.21562983284443615,-0.38778234301209447,-0.011243351613357662,0.10494616627693176,0.20727533102035522,-0.3076338469982147,,,,,,
1764808629.39184,,,,,,,-0.033209383487701416,-0.006321072578430176,-0.013213984668254852,0.1599181443452835,0.2123231738805771,0.32283931970596313
1764808629.399019,0.20139321769922972,-0.4881675478249788,0.011739537632465363,0.09358831495046616,0.20759916305541992,-0.30492621660232544,,,,,,
1764808629.40187,,,,,,,-0.04221528768539429,-0.002476632595062256,-0.015393979847431183,0.13942469656467438,0.22728854417800903,0.31137534976005554
1764808629.409071,0.17589081991314887,-0.4967372232496738,0.04254376815371215,0.07239632308483124,0.20284481346607208,-0.30856025218963623,,,,,,
1764808629.411899,,,,,,,-0.044094860553741455,0.008582353591918945,-0.019749648869037628,0.11976898461580276,0.24192127585411072,0.29848724603652954
1764808629.419124,0.18146102126091718,-0.4301753775835037,0.050235564765334126,0.05296509340405464,0.18475688993930817,-0.30854666233062744,,,,,,
1764808629.42193,,,,,,,-0.03317463397979736,0.016652405261993408,-0.02632439136505127,0.1004471555352211,0.23665355145931244,0.2859167158603668
1764808629.429176,0.2299550030559301,-0.3114636579632759,0.021252704452350734,0.03829789534211159,0.16423118114471436,-0.3008430600166321,,,,,,
1764808629.43196,,,,,,,-0.01444774866104126,0.02086317539215088,-0.023083694279193878,0.08446286618709564,0.1955348700284958,0.27552080154418945
1764808629.439229,0.28780367317348715,-0.2282481991380453,-0.08996486002020537,0.04012855142354965,0.1577964574098587,-0.282205730676651,,,,,,
1764808629.44199,,,,,,,-0.004480540752410889,0.021781504154205322,-0.015392065048217773,0.06712076812982559,0.1452093869447708,0.2708278000354767
1764808629.449281,0.340430809250474,-0.2149801367640495,-0.1764689120620489,0.04193614050745964,0.15615659952163696,-0.26035529375076294,,,,,,
1764808629.45202,,,,,,,-0.012924611568450928,0.021857798099517822,-0.009211547672748566,0.042770419269800186,0.11914821714162827,0.2661776542663574
1764808629.459333,0.35479338886290784,-0.23965572833716867,-0.18318039239943026,0.04734528809785843,0.1533469706773758,-0.24422559142112732,,,,,,
1764808629.462051,,,,,,,-0.029707133769989014,0.019769012928009033,-0.005157701671123505,0.013577323406934738,0.11804140359163284,0.2504097521305084
1764808629.469385,0.36358693617135285,-0.2840449051618576,-0.16407069132514296,0.052799440920352936,0.13428671658039093,-0.23050418496131897,,,,,,
1764808629.47208,,,,,,,-0.04293191432952881,0.016180336475372314,-0.0030270814895629883,-0.05343446508049965,0.11840519309043884,0.2202819287776947
1764808629.479438,0.36817017230838534,-0.3490156822443008,-0.12127134097516536,0.059788431972265244,0.0999835729598999,-0.22426658868789673,,,,,,
1764808629.482111,,,,,,,-0.04784947633743286,0.01794499158859253,0.0005319118499755859,-0.12583540380001068,0.11826750636100769,0.2008410543203354
1764808629.48949,0.3728638830825686,-0.4021545672357082,-0.07632511478960513,0.061844125390052795,0.06094163656234741,-0.21921591460704803,,,,,,
1764808629.492141,,,,,,,-0.04448866844177246,0.012507855892181396,0.0012738630175590515,-0.17296776175498962,0.11356809735298157,0.18994872272014618
1764808629.499542,0.40745939564555883,-0.41658699721395964,-0.11119418359696864,0.058404237031936646,0.032609108835458755,-0.21634924411773682,,,,,,
1764808629.50217,,,,,,,-0.04080468416213989,0.010865271091461182,-0.0028322935104370117,-0.21444490551948547,0.10592695325613022,0.16054390370845795
1764808629.509595,0.4104457179799676,-0.3935632645010948,-0.14196984561085702,0.049499958753585815,0.011809021234512329,-0.21056166291236877,,,,,,
1764808629.5122,,,,,,,-0.03961443901062012,0.02381443977355957,-0.0009582042694091797,-0.24884656071662903,0.10187441855669022,0.14067991077899933
1764808629.519647,0.42033816644102334,-0.31750819882452486,-0.2012964793264866,0.04712175205349922,-0.0014157673576846719,-0.19971391558647156,,,,,,
1764808629.52223,,,,,,,-0.03545022010803223,0.034857869148254395,0.001468650996685028,-0.25993701815605164,0.09631373733282089,0.1416546255350113
1764808629.529699,0.42925358656346796,-0.2655383576124906,-0.28533611401617526,0.059123553335666656,-0.00042453885544091463,-0.179767906665802,,,,,,
1764808629.532261,,,,,,,-0.03491413593292236,0.03719460964202881,0.0009598731994628906,-0.26434987783432007,0.0783456563949585,0.12881846725940704
1764808629.539752,0.40731531099975105,-0.21955343602895735,-0.3409470151443034,0.0722217783331871,-0.0004666167078539729,-0.15984906256198883,,,,,,
1764808629.542291,,,,,,,-0.036415815353393555,0.03622692823410034,0.009040236473083496,-0.2867319583892822,0.07209495455026627,0.1085057333111763
1764808629.549804,0.3502463930830359,-0.22328677733838556,-0.32750871076993643,0.083314910531044,0.0007131635211408138,-0.14507676661014557,,,,,,
1764808629.552321,,,,,,,-0.041859984397888184,0.03693276643753052,0.01924397051334381,-0.31899508833885193,0.07199828326702118,0.09208814054727554
1764808629.559856,0.3042442281037569,-0.2977554506063461,-0.3257533915352076,0.09662865847349167,0.00037295056972652674,-0.1383330374956131,,,,,,
1764808629.562351,,,,,,,-0.04820185899734497,0.041164398193359375,0.02349686622619629,-0.3394758701324463,0.07158122956752777,0.08277925848960876
1764808629.569909,0.2753279302209616,-0.3356161024451256,-0.3759476013768464,0.10782938450574875,0.004373018629848957,-0.1377846896648407,,,,,,
1764808629.572381,,,,,,,-0.05409449338912964,0.0461728572845459,0.023867838084697723,-0.36419159173965454,0.07374664396047592,0.059673406183719635
1764808629.579961,0.29476299079209567,-0.33368718020915983,-0.4081008353542536,0.11714737117290497,0.01716875098645687,-0.14120998978614807,,,,,,
1764808629.582412,,,,,,,-0.05660724639892578,0.050784170627593994,0.027685165405273438,-0.4263470470905304,0.08169031888246536,0.031219128519296646
1764808629.590013,0.38226007245928045,-0.28027181636393067,-0.4677181225795298,0.13248026371002197,0.027305275201797485,-0.14094766974449158,,,,,,
1764808629.592441,,,,,,,-0.057280540466308594,0.05173736810684204,0.030844807624816895,-0.5028433799743652,0.089813232421875,0.006325496360659599
1764808629.600066,0.5352022707223892,-0.24040683896541595,-0.5205488914698362,0.15555153787136078,0.014317735098302364,-0.12660753726959229,,,,,,
1764808629.602471,,,,,,,-0.053996920585632324,0.04716134071350098,0.0290997177362442,-0.5894283652305603,0.08452898263931274,-0.022996438667178154
1764808629.610118,0.680344901150465,-0.22589842114150524,-0.5554746589004993,0.1823117733001709,-0.015438295900821686,-0.10009311139583588,,,,,,
1764808629.612502,,,,,,,-0.05159205198287964,0.05262720584869385,0.03334140032529831,-0.6647524237632751,0.07034685462713242,-0.06393321603536606
1764808629.62017,0.801286864040792,-0.25901626236736774,-0.6150186616938561,0.2150759994983673,-0.03913215547800064,-0.06515371054410934,,,,,,
1764808629.622531,,,,,,,-0.05850017070770264,0.06342512369155884,0.04843127727508545,-0.7214803099632263,0.0616694800555706,-0.11086277663707733
1764808629.630223,0.8332321543559431,-0.3441933766543865,-0.7203746406566351,0.25027018785476685,-0.03474726155400276,-0.04011707007884979,,,,,,
1764808629.632561,,,,,,,-0.07393896579742432,0.08298474550247192,0.061757564544677734,-0.7694784998893738,0.06777343899011612,-0.1479763239622116
1764808629.640275,0.8048816736623644,-0.4174883299678564,-0.7917805653531104,0.28940868377685547,-0.012613090686500072,-0.016742343083024025,,,,,,
1764808629.642592,,,,,,,-0.09098798036575317,0.11052149534225464,0.06866490840911865,-0.7650533318519592,0.0947539284825325,-0.16963262856006622
1764808629.650327,0.7981979581147431,-0.4494213453233242,-0.8573298729758709,0.3264567255973816,0.01776478812098503,0.011321782134473324,,,,,,
1764808629.652622,,,,,,,-0.10645908117294312,0.13186794519424438,0.06282602250576019,-0.7024187445640564,0.14302292466163635,-0.19382929801940918
1764808629.66038,0.8221274074956775,-0.447655504694581,-0.8587374747514724,0.3573800027370453,0.053221721202135086,0.04916934296488762,,,,,,
1764808629.662652,,,,,,,-0.11557275056838989,0.16003811359405518,0.04976092278957367,-0.6118485331535339,0.19703130424022675,-0.22892770171165466
1764808629.670432,0.8731018079295754,-0.4306459177047014,-0.8296171056639403,0.38452479243278503,0.08349680155515671,0.09773208200931549,,,,,,
1764808629.672683,,,,,,,-0.11535710096359253,0.18871426582336426,0.03928600251674652,-0.4790593087673187,0.24008609354496002,-0.26602205634117126
1764808629.680484,0.93035835737288,-0.4079933563917875,-0.8353519229888916,0.4112893044948578,0.12116636335849762,0.15213343501091003,,,,,,
1764808629.682712,,,,,,,-0.10693442821502686,0.20967894792556763,0.0304480642080307,-0.3400433659553528,0.26906660199165344,-0.30853697657585144
1764808629.690537,0.9653034140259027,-0.4001853129893541,-0.8567682205051184,0.43536320328712463,0.16479985415935516,0.21345777809619904,,,,,,
1764808629.692742,,,,,,,-0.10065770149230957,0.21386396884918213,0.036443114280700684,-0.21312962472438812,0.29700902104377747,-0.3665288984775543
1764808629.700589,0.9875462254941463,-0.34066169539690017,-0.8616529238067567,0.4609015882015228,0.21645526587963104,0.2674870491027832,,,,,,
1764808629.702772,,,,,,,-0.09580665826797485,0.21165013313293457,0.05124783515930176,-0.15988285839557648,0.33513110876083374,-0.44254598021507263
1764808629.710641,1.0110358221530913,-0.19097849892973898,-0.9563408668261021,0.49575817584991455,0.2650480568408966,0.3177339434623718,,,,,,
1764808629.712802,,,,,,,-0.09242856502532959,0.22119498252868652,0.07388651371002197,-0.18280228972434998,0.3726832866668701,-0.5217792391777039
1764808629.720694,1.1069345292016863,0.01856441521644592,-1.0981430277198552,0.5536286234855652,0.3107644021511078,0.3693654239177704,,,,,,
1764808629.722832,,,,,,,-0.08610647916793823,0.23516124486923218,0.0939633697271347,-0.2464136928319931,0.40225955843925476,-0.5959086418151855
1764808629.730746,1.2616978054121135,0.2207844391286373,-1.2814023305743931,0.6307435035705566,0.35246017575263977,0.42583343386650085,,,,,,
1764808629.732862,,,,,,,-0.07972115278244019,0.24614208936691284,0.11108168959617615,-0.3293152451515198,0.4209709167480469,-0.6793769001960754
1764808629.740798,1.5224451293557881,0.2931073325395584,-1.4023229584157466,0.7191897630691528,0.3887774646282196,0.4899234473705292,,,,,,
1764808629.742893,,,,,,,-0.07742047309875488,0.25077956914901733,0.12848149240016937,-0.4040543735027313,0.45553290843963623,-0.758826494216919
1764808629.750851,1.823427725315094,0.2794078930109739,-1.3757165449105202,0.8127706050872803,0.40807703137397766,0.5671417117118835,,,,,,
1764808629.752923,,,,,,,-0.08145135641098022,0.24743366241455078,0.1436459720134735,-0.46650630235671997,0.5039483904838562,-0.8410210013389587
1764808629.760903,2.0247730122193692,0.2576391287952661,-1.2573007394969462,0.9082638025283813,0.42211613059043884,0.6482610702514648,,,,,,
1764808629.762954,,,,,,,-0.08619958162307739,0.25765854120254517,0.14440178871154785,-0.5094311237335205,0.5599269270896912,-0.9291237592697144
1764808629.770955,2.1029311876550314,0.25702771889865395,-1.1479169663228095,1.0026899576187134,0.42671477794647217,0.7315279245376587,,,,,,
1764808629.772983,,,,,,,-0.09182697534561157,0.2808147072792053,0.13530859351158142,-0.4959094524383545,0.6294306516647339,-1.0082471370697021
1764808629.781008,2.1402537870943545,0.1900672293037176,-1.0957849202863872,1.1013131141662598,0.44826799631118774,0.8197246789932251,,,,,,
1764808629.783013,,,,,,,-0.09598731994628906,0.315099835395813,0.11755989491939545,-0.44208186864852905,0.7120184898376465,-1.0624547004699707
1764808629.79106,2.0803560754925012,0.08016834621429443,-1.032999962810427,1.1714009046554565,0.5263974666595459,0.9015113115310669,,,,,,
1764808629.793043,,,,,,,-0.0982711911201477,0.34444111585617065,0.10071361064910889,-0.3212928771972656,0.8045931458473206,-1.1068778038024902
1764808629.801112,1.9576509023219346,-0.0032990415453910825,-1.003228801663965,1.2117946147918701,0.6453582048416138,0.9650269150733948,,,,,,
1764808629.803073,,,,,,,-0.0995711088180542,0.3520911931991577,0.09046518802642822,-0.1575842946767807,0.9032976031303406,-1.1465622186660767
1764808629.811165,1.8941098657816648,-0.11524024411737918,-1.060506686156243,1.244840145111084,0.7742404937744141,1.013962745666504,,,,,,
1764808629.813103,,,,,,,-0.09725314378738403,0.355352520942688,0.08646057546138763,0.037908248603343964,1.0058177709579468,-1.185086727142334
1764808629.821217,1.8684528619557619,-0.22271160779893398,-1.0617547865211963,1.2766002416610718,0.8936424851417542,1.0582870244979858,,,,,,
1764808629.823133,,,,,,,-0.09509187936782837,0.35023438930511475,0.09282517433166504,0.2651197016239166,1.0941274166107178,-1.2210642099380493
1764808629.831269,1.8393705598562955,-0.2113596081793308,-1.022372770334035,1.306164264678955,1.0152485370635986,1.10382878780365,,,,,,
1764808629.833163,,,,,,,-0.09156888723373413,0.3555230498313904,0.09889951348304749,0.4791038930416107,1.1698927879333496,-1.240060806274414
1764808629.841322,1.8389806837558744,-0.10746025776565074,-1.0474877762377262,1.3457753658294678,1.1329517364501953,1.1621437072753906,,,,,,
1764808629.843194,,,,,,,-0.08317887783050537,0.36864084005355835,0.10090157389640808,0.7258111238479614,1.2490483522415161,-1.2520567178726196
1764808629.851374,1.8622545918375253,0.04284486999213695,-1.1284230151712893,1.3966567516326904,1.236440896987915,1.2322156429290771,,,,,,
1764808629.853223,,,,,,,-0.0724526047706604,0.3667691946029663,0.09869936108589172,1.004562258720398,1.3310829401016235,-1.2616773843765259
1764808629.861426,1.985543117853999,0.1579693787753582,-1.0702342994444072,1.4273205995559692,1.3262341022491455,1.3119392395019531,,,,,,
1764808629.863254,,,,,,,-0.05886232852935791,0.3556799292564392,0.10444831848144531,1.269598364830017,1.3956263065338135,-1.271959900856018
1764808629.871479,1.9670780713587999,0.2071171483039856,-0.9866416778698563,1.4283159971237183,1.4231082201004028,1.359444260597229,,,,,,
1764808629.873284,,,,,,,-0.03999030590057373,0.34174638986587524,0.117950439453125,1.4735932350158691,1.4338948726654053,-1.294068694114685
1764808629.881531,1.8608605071306228,0.17814941249489782,-1.1294669712662697,1.4212723970413208,1.5138822793960571,1.3674646615982056,,,,,,
1764808629.883314,,,,,,,-0.020281612873077393,0.31987494230270386,0.12786951661109924,1.5976245403289795,1.4560941457748413,-1.3401432037353516
1764808629.891583,1.921412883248925,0.220745860683918,-1.1816203523516655,1.4072648286819458,1.5591541528701782,1.362525224685669,,,,,,
1764808629.893344,,,,,,,0.0013023614883422852,0.3020266890525818,0.12881743907928467,1.6079012155532837,1.4536211490631104,-1.4095020294189453
1764808629.901636,2.178156524509191,0.34870880825221534,-1.2029979252927006,1.3964656591415405,1.5403897762298584,1.3791019916534424,,,,,,
1764808629.903374,,,,,,,0.021296381950378418,0.3115766644477844,0.13899078965187073,1.5558507442474365,1.4393240213394165,-1.4826511144638062
1764808629.911689,2.623772632330656,0.5741717605859041,-1.3305692431949079,1.3957873582839966,1.4808284044265747,1.4494681358337402,,,,,,
1764808629.913404,,,,,,,0.03800886869430542,0.3387901782989502,0.16467761993408203,1.4446957111358643,1.4358317852020264,-1.57612144947052
1764808629.92174,3.0624563105404374,1.0048948351800442,-1.5172610047161579,1.4158626794815063,1.4045474529266357,1.568302869796753,,,,,,
1764808629.923434,,,,,,,0.05351376533508301,0.3686492443084717,0.1952323615550995,1.2873355150222778,1.4191462993621826,-1.6926017999649048
1764808629.931793,3.357750923991203,1.37915309523046,-1.6432093975916504,1.449124813079834,1.2969602346420288,1.7346599102020264,,,,,,
1764808629.933465,,,,,,,0.07910513877868652,0.38170892000198364,0.21066102385520935,1.151724934577942,1.3723742961883545,-1.8137603998184204
1764808629.941845,3.382533483070135,1.477959506419301,-1.6175269670635462,1.4730619192123413,1.1452605724334717,1.9180564880371094,,,,,,
1764808629.943494,,,,,,,0.10237336158752441,0.37804532051086426,0.20728380978107452,1.0361683368682861,1.3090485334396362,-1.9468179941177368
1764808629.951897,3.162864896228909,1.3587602955430744,-1.5739464762732385,1.468535304069519,0.9898115396499634,2.07391095161438,,,,,,
1764808629.953524,,,,,,,0.11490944027900696,0.3819041848182678,0.19065022468566895,0.9336270689964294,1.2451670169830322,-2.0927975177764893
1764808629.96195,2.7901024276942015,1.179593814960122,-1.600167835983634,1.4373584985733032,0.8650280833244324,2.171903371810913,,,,,,
1764808629.963555,,,,,,,0.11894732713699341,0.39176809787750244,0.18536195158958435,0.8106632828712463,1.1931596994400024,-2.241342544555664
1764808629.972002,2.534873282650113,1.1870172429591417,-1.819399200451374,1.4266786575317383,0.7898449301719666,2.2233190536499023,,,,,,
1764808629.973585,,,,,,,0.12017205357551575,0.39064496755599976,0.2029658555984497,0.6087650656700134,1.1431021690368652,-2.3827321529388428
1764808629.982054,2.59069804572463,1.2876456088781356,-2.072921979968995,1.449315071105957,0.730597734451294,2.2865118980407715,,,,,,
1764808629.983615,,,,,,,0.12155666947364807,0.3718962073326111,0.23460125923156738,0.3743731379508972,1.0937708616256714,-2.4914710521698
1764808629.992107,2.9031512992471455,1.3345464762628079,-2.16547225337252,1.4885764122009277,0.650265634059906,2.3986475467681885,,,,,,
1764808629.993645,,,,,,,0.11875569820404053,0.35609865188598633,0.2582018971443176,0.14638948440551758,1.0729159116744995,-2.601248264312744
1764808630.002159,3.1937083627820013,1.4489841718256473,-2.0829852549523116,1.5343199968338013,0.5530343055725098,2.5450785160064697,,,,,,
1764808630.003675,,,,,,,0.10407322645187378,0.3829558491706848,0.286188006401062,-0.028866786509752274,1.1080493927001953,-2.7447187900543213
1764808630.012211,3.377971289721131,1.7853157290637491,-1.973051300549507,1.5998667478561401,0.43611425161361694,2.7249138355255127,,,,,,
1764808630.013705,,,,,,,0.09840410947799683,0.44793611764907837,0.28909245133399963,-0.052393149584531784,1.2019420862197876,-2.8903708457946777
1764808630.022264,3.3532162031710144,2.2695769170999527,-1.7557921129375695,1.6644580364227295,0.31604164838790894,2.9166371822357178,,,,,,
1764808630.023736,,,,,,,0.12196078896522522,0.49375981092453003,0.25938084721565247,0.04524143785238266,1.3069281578063965,-3.062969923019409
1764808630.032316,2.982433510276675,2.4939076505333184,-1.5000503421962261,1.6965675354003906,0.20741984248161316,3.084683895111084,,,,,,
1764808630.033765,,,,,,,0.1600867509841919,0.5195533037185669,0.24836266040802002,0.13667121529579163,1.391780972480774,-3.225348949432373
1764808630.042368,2.4488071105688807,2.4335242012411356,-1.4572358673423529,1.6964284181594849,0.13989229500293732,3.201596736907959,,,,,,
1764808630.043795,,,,,,,0.2146189957857132,0.5348653197288513,0.24585697054862976,0.22638069093227386,1.4497936964035034,-3.3520188331604004
1764808630.052421,2.079160728228092,2.430860242728889,-1.7798185929521917,1.70372474193573,0.13567864894866943,3.2731175422668457,,,,,,
1764808630.053825,,,,,,,0.26694542169570923,0.5190495252609253,0.26713842153549194,0.2518919110298157,1.469470739364624,-3.474313259124756
1764808630.062473,2.014976133087277,2.601286075234413,-2.1190940946877,1.7433736324310303,0.14670109748840332,3.3544082641601562,,,,,,
1764808630.063855,,,,,,,0.30609390139579773,0.46389323472976685,0.3047788739204407,0.21702781319618225,1.4609971046447754,-3.5946688652038574
1764808630.072525,2.0813228746980426,2.9364477119103074,-2.204372331261635,1.8152400255203247,0.15619446337223053,3.4465126991271973,,,,,,
1764808630.073886,,,,,,,0.3242200016975403,0.393332302570343,0.366794228553772,0.10151533037424088,1.4918137788772583,-3.710256576538086
1764808630.082578,2.1774416542381045,3.3342180727124213,-2.3227783459335565,1.9301599264144897,0.1694076657295227,3.5515832901000977,,,,,,
1764808630.083917,,,,,,,0.32453370094299316,0.3774454593658447,0.4396936595439911,0.03597776219248772,1.6144965887069702,-3.789005994796753
1764808630.09263,2.3250538896501065,3.877392052966356,-2.3060534211039543,2.0711863040924072,0.14403200149536133,3.6956231594085693,,,,,,
1764808630.093947,,,,,,,0.33216363191604614,0.41917508840560913,0.48077690601348877,0.13667668402194977,1.7805668115615845,-3.8859801292419434
1764808630.102682,2.42967337103188,4.507054230105877,-2.1889041284948587,2.2128918170928955,0.1242818832397461,3.871056318283081,,,,,,
1764808630.103977,,,,,,,0.36424821615219116,0.4964761734008789,0.49363574385643005,0.38179126381874084,1.9294803142547607,-4.003192901611328
1764808630.112735,2.157362158283591,4.747617720937728,-2.204441889366507,2.315523624420166,0.14134876430034637,4.0282745361328125,,,,,,
1764808630.114007,,,,,,,0.41649457812309265,0.544651448726654,0.45065271854400635,0.7427297830581665,2.0101706981658936,-4.113576412200928
1764808630.122787,1.5143535928368568,4.418158387556672,-1.9062623681291937,2.3530569076538086,0.20011888444423676,4.129762172698975,,,,,,
1764808630.124037,,,,,,,0.4637953042984009,0.5416327118873596,0.3691507875919342,1.088725209236145,2.073382616043091,-4.186050891876221
1764808630.132839,0.9322814343899488,3.6999987195357678,-1.5303300373867152,2.325690746307373,0.3167474865913391,4.174814701080322,,,,,,
1764808630.134067,,,,,,,0.48655965924263,0.5032064318656921,0.30740103125572205,1.3996399641036987,2.121288537979126,-4.206468105316162
1764808630.142892,0.62431087923944,2.9936396716848015,-1.3070049738645553,2.2687621116638184,0.48310649394989014,4.175289630889893,,,,,,
1764808630.144097,,,,,,,0.495013952255249,0.4475746154785156,0.2792971134185791,1.5968027114868164,2.1640307903289795,-4.22727108001709
1764808630.152944,0.5984481237083673,2.7183403830364345,-1.2258335880875586,2.232417583465576,0.6390912532806396,4.15599250793457,,,,,,
1764808630.154127,,,,,,,0.5015090107917786,0.3791005611419678,0.3083224296569824,1.666515827178955,2.204512596130371,-4.2353034019470215
1764808630.162996,0.6865460938781499,2.9029239202320576,-1.396110075250268,2.25443959236145,0.7499951720237732,4.130329132080078,,,,,,
1764808630.164157,,,,,,,0.5113951563835144,0.2795398235321045,0.3655252456665039,1.530648946762085,2.2233994007110596,-4.257643699645996
1764808630.173049,0.8699626331210136,3.3998394226580855,-1.6408143191486597,2.3130414485931396,0.7855082154273987,4.084514141082764,,,,,,
1764808630.174187,,,,,,,0.5169928073883057,0.212277352809906,0.4467207193374634,1.2395012378692627,2.2542288303375244,-4.30751895904541
1764808630.183101,1.3460937061935663,4.06490053769797,-1.866714493855834,2.4234495162963867,0.7311134338378906,4.052354335784912,,,,,,
1764808630.184218,,,,,,,0.5276263952255249,0.23206102848052979,0.49184465408325195,0.8657203316688538,2.327554941177368,-4.339078903198242
1764808630.193153,2.088196852120757,4.621202587333321,-1.9071502568796277,2.5570900440216064,0.5688686370849609,4.115391731262207,,,,,,
1764808630.194248,,,,,,,0.5546261072158813,0.285133421421051,0.4722566604614258,0.5982793569564819,2.3699429035186768,-4.3628950119018555
1764808630.203206,2.5515964539140463,4.755425472079217,-1.7424828417703508,2.653333902359009,0.3796291649341583,4.232446670532227,,,,,,
1764808630.204278,,,,,,,0.5664243698120117,0.28696268796920776,0.4373667240142822,0.4103448987007141,2.366001844406128,-4.387345790863037
1764808630.213258,2.4326012411773204,4.350133483600616,-1.6931323892764747,2.717284679412842,0.25371837615966797,4.297980785369873,,,,,,
1764808630.214308,,,,,,,0.545671820640564,0.26670050621032715,0.4185168743133545,0.2678285241127014,2.386762857437134,-4.3979010581970215
1764808630.22331,1.9415058232069013,3.6845790320858356,-1.6229221041053532,2.7690505981445312,0.1946803480386734,4.283772945404053,,,,,,
1764808630.224338,,,,,,,0.5055006742477417,0.2752540707588196,0.3959237337112427,0.20174333453178406,2.4889559745788574,-4.358259677886963
1764808630.233362,1.4018477421194313,3.20319369174689,-1.4126613970786333,2.806626796722412,0.20356886088848114,4.2248358726501465,,,,,,
1764808630.234368,,,,,,,0.469570517539978,0.2894926071166992,0.37805914878845215,0.27155622839927673,2.643134355545044,-4.270697593688965
1764808630.243415,0.9366197558552026,3.0654908559307454,-1.3083258472047745,2.8277955055236816,0.2707897126674652,4.1636061668396,,,,,,
1764808630.244398,,,,,,,0.4497838020324707,0.2897169589996338,0.3724539279937744,0.39904019236564636,2.7564079761505127,-4.199020862579346
1764808630.253467,0.4620727371037006,3.0382372305631637,-1.3807231210261584,2.8525519371032715,0.3773944079875946,4.108792781829834,,,,,,
1764808630.254428,,,,,,,0.4460086226463318,0.2856748700141907,0.36311376094818115,0.533882737159729,2.8256561756134033,-4.141202926635742
1764808630.26352,0.048965398699045176,2.928324318948388,-1.4492442840665578,2.8832576274871826,0.5265162587165833,4.051131725311279,,,,,,
1764808630.264458,,,,,,,0.4476269483566284,0.25530093908309937,0.34228402376174927,0.5927416086196899,2.881357431411743,-4.080799102783203
1764808630.273572,-0.12194587923586368,2.7090619748204947,-1.4246218839854001,2.922677993774414,0.7100556492805481,3.980811834335327,,,,,,
1764808630.274488,,,,,,,0.4381090998649597,0.2252635955810547,0.35764914751052856,0.5645856261253357,2.9407663345336914,-4.013818264007568
1764808630.283624,0.05497895990014076,2.422329438009858,-1.5187106190025805,2.971726417541504,0.8914488554000854,3.905179262161255,,,,,,
1764808630.284518,,,,,,,0.41112440824508667,0.21410644054412842,0.3977784514427185,0.4622904360294342,3.0344579219818115,-3.929983377456665
1764808630.293676,0.4524029914826154,2.183783716741204,-1.6510703402251004,3.0158066749572754,1.0137776136398315,3.8357412815093994,,,,,,
1764808630.294549,,,,,,,0.3785773515701294,0.19919371604919434,0.411169171333313,0.3482198119163513,3.1290414333343506,-3.869873046875
1764808630.303729,0.9475865555495023,2.0287568211585283,-1.6895061616033316,3.0463340282440186,1.0453370809555054,3.778911828994751,,,,,,
1764808630.304579,,,,,,,0.35303229093551636,0.15960896015167236,0.4145174026489258,0.22703012824058533,3.2594223022460938,-3.802225112915039
1764808630.313781,1.4083423648357392,2.198276936995983,-1.478802386984229,3.0480782985687256,0.9683132171630859,3.7386999130249023,,,,,,
1764808630.314609,,,,,,,0.3658304810523987,0.14863848686218262,0.4182295799255371,0.15534742176532745,3.3957126140594482,-3.7091217041015625
1764808630.323833,1.7029513341099023,2.7374942885786293,-1.3385866915643214,3.059391498565674,0.845554769039154,3.7156500816345215,,,,,,
1764808630.324639,,,,,,,0.4260517954826355,0.2049618363380432,0.43083077669143677,0.18832862377166748,3.4466185569763184,-3.621378183364868
1764808630.333886,1.715932396236062,3.3686347215771675,-1.4296236377954483,3.0803868770599365,0.7312602996826172,3.7125890254974365,,,,,,
1764808630.334669,,,,,,,0.4894961714744568,0.25450026988983154,0.4065132141113281,0.33448901772499084,3.437600612640381,-3.5463531017303467
1764808630.343938,1.4221949490994215,3.7008535827994344,-1.5477216094315052,3.084573268890381,0.6701282858848572,3.697627544403076,,,,,,
1764808630.344699,,,,,,,0.508414626121521,0.24915200471878052,0.38654953241348267,0.43316397070884705,3.4524457454681396,-3.4925453662872314
1764808630.35399,0.9876800810068845,3.7505169006347656,-1.5860370193004607,3.064822196960449,0.6809561252593994,3.6597063541412354,,,,,,
1764808630.354729,,,,,,,0.503411054611206,0.24150708317756653,0.38506728410720825,0.45531803369522095,3.530613899230957,-3.4120757579803467
1764808630.364043,0.6081348204642534,3.774706754517555,-1.4515665895342826,3.010338544845581,0.7228033542633057,3.6175873279571533,,,,,,
1764808630.364759,,,,,,,0.5229010581970215,0.21365809440612793,0.3706267476081848,0.47157129645347595,3.5451486110687256,-3.327303409576416
1764808630.374095,0.322687062767148,3.7533161759644744,-1.2487104596756398,2.9326400756835938,0.764846682548523,3.5848848819732666,,,,,,
1764808630.374789,,,,,,,0.5571560859680176,0.1676596701145172,0.3371872305870056,0.4740983545780182,3.4799370765686035,-3.2555508613586426
1764808630.384147,0.045637131059169764,3.5751164945870637,-1.1827050788484512,2.8346011638641357,0.77427077293396,3.5339643955230713,,,,,,
1764808630.384819,,,,,,,0.5758768916130066,0.1422753632068634,0.29718390107154846,0.5114822387695312,3.4123497009277344,-3.193967580795288
1764808630.3942,-0.15396774191856383,3.408287517529726,-1.184346708575636,2.7399351596832275,0.7405974864959717,3.468442916870117,,,,,,
1764808630.394849,,,,,,,0.5707276463508606,0.13565638661384583,0.3003278374671936,0.5502826571464539,3.3480241298675537,-3.1426162719726562
1764808630.404253,-0.1245242052912712,3.4924107388496397,-1.318247667890787,2.656663179397583,0.6856309175491333,3.394343614578247,,,,,,
1764808630.40488,,,,,,,0.5685595273971558,0.12076401710510254,0.3087196946144104,0.595977783203125,3.278059959411621,-3.0665276050567627
1764808630.414304,-0.11616145061552524,3.771759595149755,-1.419746679164469,2.569211006164551,0.6193475127220154,3.3231077194213867,,,,,,
1764808630.41491,,,,,,,0.5730956792831421,0.07007312774658203,0.2948983609676361,0.6190143823623657,3.195889711380005,-2.9803311824798584
1764808630.424357,-0.19686200401037932,3.969694489088654,-1.292333474433422,2.4847891330718994,0.5618575811386108,3.250765562057495,,,,,,
1764808630.42494,,,,,,,0.5820108652114868,0.013047277927398682,0.2992614805698395,0.6592010259628296,3.1167523860931396,-2.8669397830963135
1764808630.434409,-0.40802959674894806,4.049843546080589,-1.2176748315513133,2.4234941005706787,0.5084114074707031,3.164330005645752,,,,,,
1764808630.43497,,,,,,,0.5875656604766846,-0.02962532639503479,0.29567214846611023,0.6376741528511047,3.0146679878234863,-2.742185115814209
1764808630.444461,-0.7019818556800484,4.0785213590323925,-1.1514324270978569,2.3836891651153564,0.4527812898159027,3.054687261581421,,,,,,
1764808630.445,,,,,,,0.59146648645401,-0.0744403600692749,0.28688186407089233,0.6022565960884094,2.9053540229797363,-2.6062393188476562
1764808630.454514,-1.04585812920928,4.042461619135737,-1.0903446289286016,2.3303682804107666,0.3980322480201721,2.9181177616119385,,,,,,
1764808630.45503,,,,,,,0.579760730266571,-0.15036533772945404,0.25052183866500854,0.4827299118041992,2.804509162902832,-2.4801313877105713
1764808630.464566,-1.4688067704096435,3.9578170042902228,-0.8339055235728621,2.232656240463257,0.32750746607780457,2.765559673309326,,,,,,
1764808630.46506,,,,,,,0.581439733505249,-0.18895210325717926,0.2089899182319641,0.3487483263015747,2.6736111640930176,-2.3511581420898438
1764808630.474618,-1.841706309327483,3.7109658114910125,-0.7425424141272902,2.1069841384887695,0.275241881608963,2.57440447807312,,,,,,
1764808630.47509,,,,,,,0.5963120460510254,-0.21316060423851013,0.18934035301208496,0.22893589735031128,2.493558406829834,-2.223285436630249
1764808630.484671,-2.0323335106015206,3.5429736358731985,-0.9811728910699486,1.968413233757019,0.2647550404071808,2.362337589263916,,,,,,
1764808630.48512,,,,,,,0.6021551489830017,-0.22595597803592682,0.17658984661102295,0.14767786860466003,2.3278088569641113,-2.1156208515167236
1764808630.494723,-1.9878043407842516,3.5363960110485553,-1.221073534078896,1.818670630455017,0.29951754212379456,2.167576789855957,,,,,,
1764808630.49515,,,,,,,0.5985814929008484,-0.19587266445159912,0.2063700556755066,0.07118283957242966,2.1417219638824463,-1.992861032485962
1764808630.504775,-1.6411004426136613,3.8828783754229543,-1.3394897778838872,1.7067928314208984,0.33405134081840515,2.024608612060547,,,,,,
1764808630.50518,,,,,,,0.5868982672691345,-0.15487150847911835,0.19347739219665527,0.12536130845546722,2.0373003482818604,-1.821933627128601
1764808630.514828,-1.2951730817735194,4.370506994065642,-1.01924426304996,1.5705732107162476,0.34803131222724915,1.9291620254516602,,,,,,
1764808630.515211,,,,,,,0.5666455030441284,-0.15237873792648315,0.1554023027420044,0.20495706796646118,1.9384839534759521,-1.6905622482299805
1764808630.52488,-1.2454317302659152,4.641295527291297,-0.6135977620452642,1.4092708826065063,0.3337128162384033,1.8359957933425903,,,,,,
1764808630.525241,,,,,,,0.5809463858604431,-0.13603252172470093,0.11611413955688477,0.2773866057395935,1.801160454750061,-1.5408345460891724
1764808630.534932,-1.5195212047331035,4.472586143314838,-0.5330892240911722,1.23369300365448,0.3019455671310425,1.6949784755706787,,,,,,
1764808630.535271,,,,,,,0.6100295782089233,-0.15492014586925507,0.09285521507263184,0.28828880190849304,1.6312345266342163,-1.3859522342681885
1764808630.544985,-1.8975252271831033,4.117771419402957,-0.619957944726944,1.0650662183761597,0.25169339776039124,1.5024487972259521,,,,,,
1764808630.545301,,,,,,,0.6200780868530273,-0.2100270688533783,0.10124152898788452,0.1461528241634369,1.4452332258224487,-1.247872233390808
1764808630.555037,-1.9740600392006336,3.9737890649259087,-0.7219517537802458,0.9305206537246704,0.14121320843696594,1.2788852453231812,,,,,,
1764808630.555331,,,,,,,0.6130591034889221,-0.2971903681755066,0.11648470163345337,-0.02561093494296074,1.2651761770248413,-1.1058423519134521
1764808630.565089,-1.9829547087959944,3.9379333231687546,-0.5340858339130878,0.7886753678321838,0.02987714856863022,1.026225209236145,,,,,,
1764808630.565361,,,,,,,0.6053826808929443,-0.3581750988960266,0.10743814706802368,-0.17898114025592804,1.0927170515060425,-0.9605006575584412
1764808630.575142,-1.9949214793130754,4.126286149770022,-0.056527358385920524,0.6639193296432495,-0.049511149525642395,0.8011241555213928,,,,,,
1764808630.575391,,,,,,,0.6302765011787415,-0.3162793815135956,0.05890268087387085,-0.143758162856102,0.8986610770225525,-0.7364246845245361
1764808630.585194,-2.0294028639771042,4.160309999924898,0.4519476489305496,0.5270930528640747,-0.09686189144849777,0.6224555969238281,,,,,,
1764808630.585421,,,,,,,0.6458011865615845,-0.27927154302597046,-0.03844344615936279,0.020993757992982864,0.6675335764884949,-0.5051844120025635
1764808630.595246,-2.2368147574439643,3.952268137991428,0.7325140643268823,0.37142425775527954,-0.10460466146469116,0.4649657905101776,,,,,,
1764808630.595451,,,,,,,0.6163065433502197,-0.27008605003356934,-0.09433770179748535,0.2290279120206833,0.47859427332878113,-0.2776098847389221
1764808630.605299,-2.605025261762738,3.6145892577975984,0.5639519798666238,0.21775215864181519,-0.03220928832888603,0.29036733508110046,,,,,,
1764808630.605481,,,,,,,0.5593276023864746,-0.28313907980918884,-0.11098194122314453,0.4265190362930298,0.3648519814014435,-0.05051548033952713
1764808630.615351,-3.012685732938349,3.4839047763109203,0.46658875322341914,0.07483222335577011,0.08833334594964981,0.08622296899557114,,,,,,
1764808630.615511,,,,,,,0.5256574749946594,-0.28345224261283875,-0.08360373973846436,0.5612984299659729,0.2692309319972992,0.13924698531627655
1764808630.625403,-3.0922663423925636,3.719465344288945,0.40545682365149255,-0.004506010562181473,0.163699209690094,-0.1341991424560547,,,,,,
1764808630.625542,,,,,,,0.5406537652015686,-0.2881733179092407,-0.01487046480178833,0.6626760959625244,0.14178882539272308,0.3168017864227295
1764808630.635456,-2.858557832022011,4.182216126784682,0.4015510483846068,-0.035715214908123016,0.1638461947441101,-0.3411712944507599,,,,,,
1764808630.635572,,,,,,,0.5650781393051147,-0.3149474561214447,0.005407094955444336,0.5673123002052307,0.005999292712658644,0.44439518451690674
1764808630.645508,-2.513585872210562,4.599474739649891,0.7271408468559384,-0.08991027623414993,0.11513405293226242,-0.5205343961715698,,,,,,
1764808630.645602,,,,,,,0.5854150056838989,-0.3310805559158325,-0.007742702960968018,0.3411391079425812,-0.1203562542796135,0.567116916179657
1764808630.65556,-1.9708930996023117,4.587656876084208,0.9287591054826975,-0.14903120696544647,0.04398956894874573,-0.6580294370651245,,,,,,
1764808630.655632,,,,,,,0.5983974933624268,-0.3650037944316864,-0.01920902729034424,0.06260416656732559,-0.261582612991333,0.6653627753257751
1764808630.665613,-1.5077658850096165,4.4234412963956595,1.1507014824748039,-0.25859951972961426,-0.04883304610848427,-0.7901536226272583,,,,,,
1764808630.665662,,,,,,,0.5978016257286072,-0.37610283493995667,-0.051861345767974854,-0.22662334144115448,-0.373399943113327,0.7653902769088745
1764808630.675665,-1.3192879707239566,4.411795282265544,1.2235606747195125,-0.39077121019363403,-0.15282782912254333,-0.9082990288734436,,,,,,
1764808630.675692,,,,,,,0.6096642017364502,-0.3111189007759094,-0.07284951210021973,-0.4046154320240021,-0.5289349555969238,0.8790947794914246
1764808630.685717,-1.271203008121252,4.098292227429151,0.8375362812906503,-0.48705539107322693,-0.21403740346431732,-1.0073918104171753,,,,,,
1764808630.685722,,,,,,,0.6202501058578491,-0.24699318408966064,-0.07865023612976074,-0.43655145168304443,-0.7664777636528015,1.0185848474502563
1764808630.695752,,,,,,,0.5661265850067139,-0.2148979902267456,-0.062021613121032715,-0.4781548082828522,-0.9219027161598206,1.1028118133544922
1764808630.695769,-1.4395068800367414,3.489953993347287,0.5558382315158844,-0.5838810801506042,-0.21255367994308472,-1.1094026565551758,,,,,,
1764808630.705782,,,,,,,0.48764002323150635,-0.17285293340682983,-0.03205448389053345,-0.4506358802318573,-1.0116947889328003,1.217514991760254
1764808630.705822,-1.6145120031565428,3.241303642171621,0.603622311475873,-0.6902165412902832,-0.17891396582126617,-1.2098400592803955,,,,,,
1764808630.715812,,,,,,,0.44819992780685425,-0.14510178565979004,-0.029273033142089844,-0.3007180392742157,-1.1234697103500366,1.3446711301803589
1764808630.715874,-1.7309196836180984,3.1194547935694454,0.38505613291859625,-0.7935784459114075,-0.1194533184170723,-1.305046558380127,,,,,,
1764808630.725842,,,,,,,0.43455129861831665,-0.13090243935585022,-0.05331254005432129,-0.13343867659568787,-1.2081023454666138,1.4503947496414185
1764808630.725926,-1.8597382251024246,2.949818357875943,0.32283319323956966,-0.9207925796508789,-0.058021917939186096,-1.4092363119125366,,,,,,
1764808630.735872,,,,,,,0.445064902305603,-0.12128505110740662,-0.05882596969604492,0.05870679393410683,-1.3043324947357178,1.5767731666564941
1764808630.735979,-1.9552453024849294,2.9530811590641735,0.4235147506505251,-1.0727794170379639,-0.024612419307231903,-1.5192971229553223,,,,,,
1764808630.745903,,,,,,,0.48769205808639526,-0.1395932137966156,-0.042887866497039795,0.2077707201242447,-1.4464808702468872,1.7097145318984985
1764808630.746031,-2.017041979575902,3.081510555100441,0.3341021907508373,-1.20936119556427,-0.01611240766942501,-1.653674840927124,,,,,,
1764808630.755933,,,,,,,0.5213964581489563,-0.18613824248313904,-0.0066353678703308105,0.253416508436203,-1.5804194211959839,1.8215280771255493
1764808630.756083,-2.0962147388815877,3.189072519674897,0.16649813766777513,-1.301713228225708,-0.0053711398504674435,-1.8005669116973877,,,,,,
1764808630.765963,,,,,,,0.5202308893203735,-0.23628777265548706,0.034687697887420654,0.1183200553059578,-1.663032054901123,1.9347214698791504
1764808630.766136,-2.116598478479683,3.3583950671136376,0.13197627486288546,-1.3750226497650146,-0.011928374879062176,-1.9448127746582031,,,,,,
1764808630.775993,,,,,,,0.5253474712371826,-0.27319568395614624,0.0615917444229126,-0.06937793642282486,-1.748356819152832,2.0701348781585693
1764808630.776188,-2.0695678472355006,3.6578526454627514,0.14735387673676012,-1.4613778591156006,-0.0795670598745346,-2.0899829864501953,,,,,,
1764808630.786023,,,,,,,0.5456621050834656,-0.3246157169342041,0.07949084043502808,-0.2702506184577942,-1.84468412399292,2.1815316677093506
1764808630.78624,-1.9755726357206702,3.8753082324296235,-0.03204962747246027,-1.5325918197631836,-0.20985768735408783,-2.2480223178863525,,,,,,
1764808630.796053,,,,,,,0.5772514343261719,-0.33309096097946167,0.09753870964050293,-0.4296916723251343,-1.9351376295089722,2.2774884700775146
1764808630.796293,-1.9076430088326335,4.0312493202477695,-0.10307985072433948,-1.6141796112060547,-0.3411983847618103,-2.418775796890259,,,,,,
1764808630.806083,,,,,,,0.6202448010444641,-0.2869066894054413,0.11280786991119385,-0.5065356492996216,-2.050823926925659,2.4002678394317627
1764808630.806345,-1.8729051651895046,4.245701049223542,-0.04682137240767479,-1.7157008647918701,-0.4240877032279968,-2.5763208866119385,,,,,,
1764808630.816113,,,,,,,0.6679340600967407,-0.2215302586555481,0.1150556206703186,-0.525177538394928,-2.1733765602111816,2.5376152992248535
1764808630.816397,-1.8550903992965817,4.532066506287455,-0.13252981709241865,-1.8351079225540161,-0.4326079785823822,-2.71014666557312,,,,,,
1764808630.826143,,,,,,,0.7065604329109192,-0.18506115674972534,0.11685293912887573,-0.5505717992782593,-2.3326454162597656,2.6683237552642822
1764808630.82645,-1.8840280322283505,4.792928104260564,-0.330061390927434,-1.9545694589614868,-0.4340048134326935,-2.8143954277038574,,,,,,
1764808630.836173,,,,,,,0.7165951728820801,-0.18775349855422974,0.14283877611160278,-0.5812394022941589,-2.5296366214752197,2.782242774963379
1764808630.836502,-1.8308952847167848,4.646126600709557,-0.761577077203989,-2.05182147026062,-0.45377081632614136,-2.905853271484375,,,,,,
1764808630.846203,,,,,,,0.6726548671722412,-0.19063842296600342,0.19602584838867188,-0.692225456237793,-2.622742176055908,2.877664804458618
1764808630.846554,-1.780453968246281,4.235957069322467,-1.0954285080641508,-2.141120672225952,-0.4806532561779022,-3.021690845489502,,,,,,
1764808630.856234,,,,,,,0.6171712279319763,-0.15797531604766846,0.26135414838790894,-0.7079660892486572,-2.652712821960449,2.9813191890716553
1764808630.856607,-1.6899495214566587,4.038443615666032,-1.179727962733805,-2.2072949409484863,-0.49481168389320374,-3.1386947631835938,,,,,,
1764808630.866264,,,,,,,0.5834856033325195,-0.12316930294036865,0.3049544095993042,-0.6619932055473328,-2.659116744995117,3.0530331134796143
1764808630.866659,-1.4925024110347032,4.074053858229518,-1.2185659351721405,-2.2593131065368652,-0.48295342922210693,-3.2434256076812744,,,,,,
1764808630.876294,,,,,,,0.5845873951911926,-0.070702463388443,0.3200641870498657,-0.6303167939186096,-2.6181042194366455,3.1464242935180664
1764808630.876711,-1.3571189580768346,4.469596313849091,-1.1179438528634607,-2.3148558139801025,-0.4703904986381531,-3.3363723754882812,,,,,,
1764808630.886324,,,,,,,0.6335683465003967,-0.05622661113739014,0.3059506416320801,-0.5072040557861328,-2.6345632076263428,3.286686420440674
1764808630.886764,-1.2350655268132686,4.953723061850667,-0.9990697822883725,-2.359696865081787,-0.47812792658805847,-3.411940813064575,,,,,,
1764808630.896354,,,,,,,0.6747300624847412,-0.08673423528671265,0.2791675925254822,-0.4465218186378479,-2.6504573822021484,3.3877010345458984
1764808630.896816,-1.207362111851573,5.16988919352889,-0.8989258388854563,-2.403594493865967,-0.48813343048095703,-3.481714963912964,,,,,,
1764808630.906384,,,,,,,0.6992952823638916,-0.07380557060241699,0.27584123611450195,-0.4867803752422333,-2.6826443672180176,3.4441800117492676
1764808630.906868,-1.3565882122009991,5.19288545371294,-0.8423102176941931,-2.465674638748169,-0.5093691349029541,-3.5723040103912354,,,,,,
1764808630.916414,,,,,,,0.7146233916282654,-0.054231464862823486,0.31384894251823425,-0.6222063899040222,-2.83194899559021,3.5230298042297363
1764808630.916921,-1.4174018696039914,4.945950089761615,-1.2787164524912833,-2.5181024074554443,-0.5473806858062744,-3.6810638904571533,,,,,,
1764808630.926444,,,,,,,0.6892805099487305,-0.06091606616973877,0.3457289934158325,-0.7991100549697876,-2.9875566959381104,3.634894371032715
1764808630.926973,-1.234255379474163,4.449962223574519,-2.150894423574209,-2.5573554039001465,-0.6150521636009216,-3.7905380725860596,,,,,,
1764808630.936474,,,,,,,0.6036922335624695,-0.10438740253448486,0.4131743013858795,-0.999684751033783,-3.029000759124756,3.7149786949157715
1764808630.937025,-0.9006143764942884,3.8789667549371716,-2.854859854286909,-2.6074986457824707,-0.6672698259353638,-3.9255757331848145,,,,,,
1764808630.946504,,,,,,,0.5162244439125061,-0.12296462059020996,0.5129310488700867,-1.199196457862854,-2.9084889888763428,3.7939414978027344
1764808630.947077,-0.5167810633689165,3.6586996176809072,-3.155475955021381,-2.6331064701080322,-0.6762950420379639,-4.091946125030518,,,,,,
1764808630.956534,,,,,,,0.5148897171020508,-0.09137266874313354,0.5763049125671387,-1.3423643112182617,-2.7716574668884277,3.9321510791778564
1764808630.95713,-0.09204816910028457,4.194538432741165,-2.942877160435915,-2.598721504211426,-0.6871072053909302,-4.234776496887207,,,,,,
1764808630.966565,,,,,,,0.6090506315231323,-0.06195861101150513,0.5993786454200745,-1.3074325323104858,-2.764449119567871,4.1316938400268555
1764808630.967182,0.16029226876497268,5.168204601442813,-2.3979086979806423,-2.4869163036346436,-0.7032172083854675,-4.318142414093018,,,,,,
1764808630.976595,,,,,,,0.6833664178848267,-0.04349637031555176,0.5558622479438782,-1.1430861949920654,-2.771420955657959,4.287874698638916
1764808630.977234,0.029210312393307684,5.697283420848846,-1.8522797257900236,-2.3602218627929688,-0.6369641423225403,-4.352067470550537,,,,,,
1764808630.986625,,,,,,,0.6920944452285767,0.06388318538665771,0.4164239764213562,-0.8064677119255066,-2.665186643600464,4.46697473526001
1764808630.987287,-0.530098225581646,5.673275353273749,-1.0973802266538142,-2.3432295322418213,-0.5182420015335083,-4.369721412658691,,,,,,
1764808630.996655,,,,,,,0.695929765701294,0.18678587675094604,0.28732770681381226,-0.24836313724517822,-2.660097122192383,4.617004871368408
1764808630.997339,-1.1889584401547908,4.98055553919673,-0.6738835961818694,-2.4326958656311035,-0.3665827512741089,-4.424098491668701,,,,,,
1764808631.006685,,,,,,,0.6841796040534973,0.25279444456100464,0.20534443855285645,0.3827528655529022,-2.645235538482666,4.741844654083252
1764808631.007391,-1.6697990060925483,3.9762542859956618,-0.6940998702585697,-2.606605052947998,-0.18538396060466766,-4.565392017364502,,,,,,
1764808631.016715,,,,,,,0.6615387797355652,0.2705456018447876,0.1885199099779129,1.0562752485275269,-2.521346092224121,4.961780071258545
1764808631.017444,-1.8436556898295877,3.395299733401835,-0.7309732646256685,-2.8178765773773193,0.06786960363388062,-4.774813652038574,,,,,,
1764808631.026745,,,,,,,0.6510396599769592,0.24929308891296387,0.20828121900558472,1.6741358041763306,-2.3708229064941406,5.240139484405518
1764808631.027496,-1.7262077065348624,3.480629407902062,-0.9677736035317182,-2.9946277141571045,0.4241543114185333,-4.9937896728515625,,,,,,
1764808631.036775,,,,,,,0.6482611894607544,0.21658408641815186,0.2682284712791443,2.1628098487854004,-2.2205111980438232,5.50869607925415
1764808631.037548,-1.4380565350979566,3.853249253095686,-1.2335796721696852,-3.061781883239746,0.771061360836029,-5.223468780517578,,,,,,
1764808631.046805,,,,,,,0.6312208771705627,0.1987096667289734,0.33969348669052124,2.651890516281128,-1.9305158853530884,5.902958393096924
1764808631.047601,-0.9259183290988207,4.417775817979872,-1.2661223438560962,-3.0544419288635254,1.1148216724395752,-5.423565864562988,,,,,,
1764808631.056835,,,,,,,0.6030787229537964,0.2214680314064026,0.4102005362510681,3.0568668842315674,-1.5811206102371216,6.2566680908203125
1764808631.057653,-0.3386117771297693,5.154432681199908,-1.2679390378892421,-2.982806921005249,1.4499893188476562,-5.587522506713867,,,,,,
1764808631.066865,,,,,,,0.5783697366714478,0.3287898302078247,0.4714307188987732,3.2334280014038086,-1.1698521375656128,6.4607625007629395
1764808631.067705,0.1589151351928711,5.888319202923775,-1.345776895329356,-2.8500611782073975,1.7073848247528076,-5.73377799987793,,,,,,
1764808631.076896,,,,,,,0.5823479294776917,0.4050477147102356,0.4800553619861603,3.3038766384124756,-0.7056053280830383,6.7079596519470215
1764808631.077758,0.7316191613137721,6.6693748875796794,-1.2682698772788048,-2.6949658393859863,1.8254894018173218,-5.853386402130127,,,,,,
1764808631.086926,,,,,,,0.6263022422790527,0.3839982748031616,0.45813512802124023,3.3417000770568848,-0.334804892539978,6.930473804473877
1764808631.087809,1.41747902649343,7.313722008153796,-1.3727198473125695,-2.5244739055633545,1.787054419517517,-5.9402875900268555,,,,,,
1764808631.096956,,,,,,,0.6677762866020203,0.3322564363479614,0.4726620614528656,3.2280428409576416,0.009186830371618271,7.082014560699463
1764808631.097861,2.1708827341139316,7.696994764786958,-1.5272604206830263,-2.3414456844329834,1.640291452407837,-6.029682636260986,,,,,,
1764808631.106986,,,,,,,0.691092312335968,0.28921324014663696,0.4817352294921875,3.018430471420288,0.34776994585990906,7.149356365203857
1764808631.107914,2.784612598106265,7.658787491467595,-1.5224562352716922,-2.1679446697235107,1.444132924079895,-6.14875602722168,,,,,,
1764808631.117016,,,,,,,0.712901771068573,0.22084999084472656,0.4692614674568176,2.763540506362915,0.7246991395950317,7.112699508666992
1764808631.117966,3.114958651193976,7.393667651528119,-1.2346306425273417,-2.035611391067505,1.1370551586151123,-6.283940315246582,,,,,,
1764808631.127045,,,,,,,0.748422384262085,0.18993353843688965,0.4629814922809601,2.347233772277832,1.1217478513717651,7.033419132232666
1764808631.128018,3.298117416283488,7.152061373645067,-0.975888520926237,-1.936985731124878,0.7500272393226624,-6.41659688949585,,,,,,
1764808631.137075,,,,,,,0.8172778487205505,0.235120952129364,0.4576128423213959,1.4884119033813477,1.380791425704956,6.949255466461182
1764808631.13807,3.3594419458180664,7.120068152534961,-1.0590333256680518,-1.859878659248352,0.32689720392227173,-6.549169063568115,,,,,,
1764808631.147105,,,,,,,0.926103949546814,0.25638216733932495,0.4295417070388794,0.7634609341621399,1.551895022392273,6.873513698577881
1764808631.148124,3.453552308145165,7.361130825060606,-1.1561001997131855,-1.8181722164154053,-0.10944017767906189,-6.659635543823242,,,,,,
1764808631.157135,,,,,,,1.0369446277618408,0.21108478307724,0.4080275595188141,0.12070780992507935,1.6230461597442627,6.831567287445068
1764808631.158175,3.7478403749018905,7.659372597879171,-1.3099090247429908,-1.793354868888855,-0.5001468658447266,-6.682183265686035,,,,,,
1764808631.167166,,,,,,,1.1204102039337158,0.3083139657974243,0.42128780484199524,-0.5037235617637634,1.5998963117599487,6.695260524749756
1764808631.168227,3.952513052663207,7.94766697717905,-1.6488742914855479,-1.7692424058914185,-0.8091763854026794,-6.598466396331787,,,,,,
1764808631.177196,,,,,,,1.1843175888061523,0.5082476735115051,0.4091620147228241,-0.8202311992645264,1.5671149492263794,6.612051010131836
1764808631.17828,3.98548067176342,8.41253957413435,-1.7586849117696284,-1.7468527555465698,-1.0443415641784668,-6.396780490875244,,,,,,
1764808631.187227,,,,,,,1.2275452613830566,0.6810029745101929,0.38538873195648193,-1.029497504234314,1.451830506324768,6.447754859924316
1764808631.188332,3.8813317305028434,8.987755875337124,-1.7366519436597823,-1.7056539058685303,-1.2421238422393799,-6.096786975860596,,,,,,
1764808631.197257,,,,,,,1.233729600906372,0.7936869859695435,0.35570448637008667,-1.05370032787323,1.3308539390563965,6.215708255767822
1764808631.198384,3.6815789734870195,9.413678856173156,-1.7142039650082588,-1.6352277994155884,-1.4195752143859863,-5.76550817489624,,,,,,
1764808631.207287,,,,,,,1.2219778299331665,0.7891915440559387,0.31783103942871094,-1.062870979309082,1.2311146259307861,5.8627543449401855
1764808631.208437,3.2278730827122923,9.263696384498477,-1.5449638351559638,-1.6156524419784546,-1.5917259454727173,-5.471174240112305,,,,,,
1764808631.217317,,,,,,,1.182762861251831,0.7758144736289978,0.30239835381507874,-1.2222611904144287,1.17121160030365,5.406517505645752
1764808631.218489,2.513610129868984,8.724073374724387,-1.3710440230548382,-1.6752270460128784,-1.6914931535720825,-5.24144983291626,,,,,,
1764808631.227346,,,,,,,1.145928144454956,0.8003339171409607,0.3243434429168701,-1.466038465499878,1.1326212882995605,5.022287368774414
1764808631.228541,1.80200616710186,8.328512214404345,-1.6451251680850982,-1.7662965059280396,-1.6641435623168945,-5.066778182983398,,,,,,
1764808631.237376,,,,,,,1.123471975326538,0.8499597907066345,0.3307880461215973,-1.7260562181472778,1.0844151973724365,4.7925567626953125
1764808631.238594,1.3827946666032076,8.528734927019476,-2.099308028721809,-1.8358465433120728,-1.532983422279358,-4.921436786651611,,,,,,
1764808631.247406,,,,,,,1.1139650344848633,0.8899574875831604,0.32603368163108826,-1.9447972774505615,1.0049784183502197,4.634963512420654
1764808631.248646,1.4305086039364336,9.26773659979999,-2.6128292135119437,-1.8491098880767822,-1.3603761196136475,-4.772500514984131,,,,,,
1764808631.257437,,,,,,,1.1046541929244995,0.8825722336769104,0.33835458755493164,-2.1425278186798096,0.8994253873825073,4.4875335693359375
1764808631.258698,1.8882202232211827,9.937578227114678,-3.0274609850049017,-1.8010166883468628,-1.212642788887024,-4.608370304107666,,,,,,
1764808631.267467,,,,,,,1.0816682577133179,0.8285889625549316,0.36073037981987,-2.2816545963287354,0.7861534357070923,4.334686279296875
1764808631.268751,2.4038830962151287,9.983757794487476,-3.158990100622177,-1.7260671854019165,-1.1586307287216187,-4.465188026428223,,,,,,
1764808631.277497,,,,,,,1.0428130626678467,0.7660107016563416,0.373690128326416,-2.3468024730682373,0.7063336968421936,4.189539432525635
1764808631.278803,2.8559935344919563,9.513394783422351,-2.9439129332244396,-1.6783074140548706,-1.2207324504852295,-4.374669551849365,,,,,,
1764808631.287527,,,,,,,1.0018383264541626,0.747270941734314,0.3798953890800476,-2.4375412464141846,0.6656333804130554,4.0451436042785645
1764808631.288855,3.199673408666253,8.854490729707479,-2.692906374311447,-1.6443073749542236,-1.367315649986267,-4.326719284057617,,,,,,
1764808631.297556,,,,,,,0.9612584710121155,0.7592614889144897,0.38078033924102783,-2.526398181915283,0.6214970946311951,3.9468767642974854
1764808631.298908,3.4341216314882037,8.28821644437313,-2.596418176937103,-1.6154751777648926,-1.5609493255615234,-4.28756856918335,,,,,,
1764808631.307588,,,,,,,0.9217044115066528,0.7307655811309814,0.3745189309120178,-2.550191640853882,0.6177889108657837,3.906912088394165
1764808631.30896,3.5509988291576504,8.091693170797825,-2.5208453418195247,-1.6008388996124268,-1.727208137512207,-4.239583492279053,,,,,,
1764808631.317617,,,,,,,0.8900512456893921,0.6769779920578003,0.38067626953125,-2.6228444576263428,0.6500938534736633,3.8354926109313965
1764808631.319012,3.41400531065464,7.9488424506992095,-2.6598984232008456,-1.5590965747833252,-1.8072295188903809,-4.2040863037109375,,,,,,
1764808631.327647,,,,,,,0.8559696674346924,0.6527531147003174,0.4089673161506653,-2.7341504096984863,0.7001871466636658,3.77335524559021
1764808631.329064,3.0949066277682777,7.724876458925008,-2.820315779650211,-1.500413179397583,-1.8205723762512207,-4.17466926574707,,,,,,
1764808631.337677,,,,,,,0.8279786705970764,0.6387084722518921,0.44395673274993896,-2.835360527038574,0.7383829951286316,3.7359907627105713
1764808631.339117,2.7004928839176894,7.617212787541747,-2.803132005137205,-1.4398244619369507,-1.7941402196884155,-4.160272598266602,,,,,,
1764808631.347708,,,,,,,0.8113846778869629,0.6276307106018066,0.4657575488090515,-2.911372184753418,0.7390633821487427,3.6535794734954834
1764808631.349169,2.216083811843395,7.4379633048504585,-2.8433178850531577,-1.375902533531189,-1.736127257347107,-4.159356117248535,,,,,,
1764808631.357738,,,,,,,0.7918106317520142,0.6510322093963623,0.465658962726593,-3.0108230113983154,0.7974175214767456,3.6011738777160645
1764808631.359221,1.8233078983277082,7.408342658090591,-2.8184219287276266,-1.3272244930267334,-1.6710596084594727,-4.154905319213867,,,,,,
1764808631.367768,,,,,,,0.8026438355445862,0.7004232406616211,0.44846397638320923,-3.0606698989868164,0.8681998252868652,3.5989484786987305
1764808631.369274,1.5681009651154278,7.745940874263644,-2.701791107034683,-1.299146056175232,-1.6039284467697144,-4.137118816375732,,,,,,
1764808631.377798,,,,,,,0.8498148322105408,0.7134937644004822,0.42472904920578003,-3.0919766426086426,0.8609821200370789,3.5870869159698486
1764808631.379327,1.4263171435959636,8.146809493342042,-2.7306396003782747,-1.2748396396636963,-1.5066032409667969,-4.1111626625061035,,,,,,
1764808631.387827,,,,,,,0.8919717669487,0.683480978012085,0.38117408752441406,-3.10095477104187,0.754880428314209,3.5301170349121094
1764808631.389378,1.471311592837423,8.144342226445675,-2.7919033396363258,-1.2444292306900024,-1.3845205307006836,-4.083436489105225,,,,,,
1764808631.397857,,,,,,,0.8718776106834412,0.6352168321609497,0.3638366460800171,-3.123338460922241,0.6741911768913269,3.429980516433716
1764808631.399431,1.7222876104816793,7.374374337515235,-2.9086618793621657,-1.193499207496643,-1.2769684791564941,-4.054133415222168,,,,,,
1764808631.407887,,,,,,,0.7573193907737732,0.6297925710678101,0.3814176321029663,-3.1334919929504395,0.7150039076805115,3.3862500190734863
1764808631.409483,2.1458222348764537,6.294872297379374,-2.8348233206912874,-1.1296539306640625,-1.190611720085144,-4.009028911590576,,,,,,
1764808631.417918,,,,,,,0.6205574870109558,0.6637696027755737,0.3766193389892578,-2.997032403945923,0.8029510378837585,3.4032211303710938
1764808631.419535,2.560470665243268,5.52411062772274,-2.7824329159796237,-1.0452327728271484,-1.0872690677642822,-3.955662488937378,,,,,,
1764808631.427948,,,,,,,0.5138194561004639,0.6843046545982361,0.31245195865631104,-2.736462116241455,0.8285104632377625,3.398167133331299
1764808631.429588,2.861241956539452,4.871735098993778,-2.7922411932885645,-0.9757631421089172,-1.0045151710510254,-3.9153900146484375,,,,,,
1764808631.437979,,,,,,,0.4463269114494324,0.6871565580368042,0.23833847045898438,-2.4597344398498535,0.8733810186386108,3.3678441047668457
1764808631.43964,3.0970208434432744,4.247221390658617,-2.6184710187911984,-0.9472001791000366,-0.978267252445221,-3.8984103202819824,,,,,,
1764808631.448009,,,,,,,0.4192351698875427,0.691616415977478,0.18833422660827637,-2.226253032684326,0.949439525604248,3.393333673477173
1764808631.449692,3.3956694434970616,3.784916013842821,-2.49647779328227,-0.9543291926383972,-0.9596238136291504,-3.886258363723755,,,,,,
1764808631.458039,,,,,,,0.42485707998275757,0.6850412487983704,0.11934912204742432,-1.953255534172058,0.9605409502983093,3.423978805541992
1764808631.459745,3.709256377224624,3.506619881466031,-2.4767867121234537,-0.982486367225647,-0.9263160824775696,-3.847849130630493,,,,,,
1764808631.468069,,,,,,,0.4346807599067688,0.6752415895462036,0.05298542231321335,-1.7747986316680908,0.9217080473899841,3.4009921550750732
1764808631.469797,3.984960155020654,3.3112837718486783,-2.3931156184852123,-1.037841558456421,-0.8853912353515625,-3.779252529144287,,,,,,
1764808631.478098,,,,,,,0.4349077343940735,0.6982256174087524,0.01851785182952881,-1.7315187454223633,0.8743655681610107,3.3745734691619873
1764808631.479849,4.201692103888094,3.1507693847656246,-2.3553619341522456,-1.0975360870361328,-0.8443450927734375,-3.6834042072296143,,,,,,
1764808631.488128,,,,,,,0.4199959635734558,0.6974319219589233,0.010869860649108887,-1.667806625366211,0.7927165031433105,3.3623178005218506
1764808631.489901,4.330756875218451,2.950762360727787,-2.448453767086565,-1.1350288391113281,-0.8030336499214172,-3.562824010848999,,,,,,
1764808631.498158,,,,,,,0.37771904468536377,0.6600360870361328,0.008973240852355957,-1.670717477798462,0.7777873873710632,3.2952218055725098
1764808631.499954,4.408079476612806,2.876646738681197,-2.41026812107712,-1.1651724576950073,-0.7772788405418396,-3.4405922889709473,,,,,,
1764808631.508188,,,,,,,0.35040950775146484,0.6807785630226135,0.04793490469455719,-1.8126864433288574,0.7892003655433655,3.2366750240325928
1764808631.510006,4.353626586413383,3.1978228123635053,-2.345438798291981,-1.1356619596481323,-0.7448058724403381,-3.324615001678467,,,,,,
1764808631.518219,,,,,,,0.3487333059310913,0.6713594198226929,0.08149193972349167,-1.8673115968704224,0.6672075986862183,3.13531494140625
1764808631.520058,4.226631314833462,3.339046808043122,-2.572421507538855,-1.0197763442993164,-0.6907015442848206,-3.1993935108184814,,,,,,
1764808631.528249,,,,,,,0.30830657482147217,0.6460582613945007,0.08029590547084808,-1.9852796792984009,0.5389928817749023,2.9958982467651367
1764808631.530111,4.03350382117629,2.989953968909383,-2.5844886696904896,-0.8951034545898438,-0.6472011804580688,-3.0706892013549805,,,,,,
1764808631.53828,,,,,,,0.24262607097625732,0.6654053926467896,0.09781358391046524,-2.0484395027160645,0.5243178009986877,2.9079084396362305
1764808631.540163,3.828944540661573,2.5447756679832936,-2.3496079006701707,-0.841172993183136,-0.6480219960212708,-2.963935375213623,,,,,,
1764808631.54831,,,,,,,0.20228725671768188,0.6438192129135132,0.10212504863739014,-2.01484751701355,0.5651645660400391,2.8010878562927246
1764808631.550215,3.695739016264677,2.2863006728857753,-2.120852336531877,-0.8160333037376404,-0.6907917857170105,-2.9128332138061523,,,,,,
1764808631.55834,,,,,,,0.189694344997406,0.6598320007324219,0.11733508110046387,-2.04766583442688,0.6190272569656372,2.688575267791748
1764808631.560268,3.636213352845609,2.3291660011440514,-2.122280031247437,-0.7412248253822327,-0.6875576376914978,-2.8900184631347656,,,,,,
1764808631.56837,,,,,,,0.20748615264892578,0.679082989692688,0.0845421552658081,-1.9389950037002563,0.619482159614563,2.5867488384246826
1764808631.57032,3.7230157302469014,2.607043031325936,-2.0185861402779817,-0.6438636779785156,-0.6630664467811584,-2.832581043243408,,,,,,
1764808631.578399,,,,,,,0.2330721616744995,0.6702567338943481,0.0404282808303833,-1.8771432638168335,0.6020866632461548,2.4959256649017334
1764808631.580372,3.828049345387518,2.8699808510512113,-1.7048016381517053,-0.5729618668556213,-0.6361368298530579,-2.7109410762786865,,,,,,
1764808631.588429,,,,,,,0.2599210739135742,0.6638692021369934,0.008079521358013153,-1.8128997087478638,0.5366432070732117,2.3718421459198
1764808631.590425,3.8150606844767925,2.7394740642189976,-1.6277315502136944,-0.5307345390319824,-0.5934324860572815,-2.562267780303955,,,,,,
1764808631.598459,,,,,,,0.24739789962768555,0.6396200656890869,0.01693212240934372,-1.7837514877319336,0.4660651683807373,2.206022262573242
1764808631.600477,3.5898464462071655,2.3091262526780367,-1.7358853432014583,-0.4603639245033264,-0.44329017400741577,-2.4197731018066406,,,,,,
1764808631.60849,,,,,,,0.19195222854614258,0.6645230650901794,0.04298054426908493,-1.7298731803894043,0.43960824608802795,2.119943141937256
1764808631.610529,3.4615210950672624,1.8473790942668913,-1.8873142142921686,-0.33909183740615845,-0.15880544483661652,-2.296058416366577,,,,,,
1764808631.61852,,,,,,,0.10721993446350098,0.7120385766029358,0.013530023396015167,-1.4588805437088013,0.4559784531593323,2.0253794193267822
1764808631.620582,3.4145226125270125,1.2715034523725508,-1.9014789332449435,-0.18951162695884705,0.16015087068080902,-2.196258068084717,,,,,,
1764808631.62855,,,,,,,-0.003095269203186035,0.7565624117851257,-0.05384064465761185,-0.9442844986915588,0.546924889087677,1.932411789894104
1764808631.630634,3.5769355267077683,0.5835521678715944,-1.702530186088383,-0.06190120428800583,0.42010071873664856,-2.1076500415802,,,,,,
1764808631.63858,,,,,,,-0.09738767147064209,0.8241145014762878,-0.1685398817062378,-0.3421594798564911,0.6973138451576233,1.799792766571045
1764808631.640686,4.038209222388267,-0.07568857045173645,-1.1699991804018617,-0.024153873324394226,0.5514546036720276,-2.0250818729400635,,,,,,
1764808631.648609,,,,,,,-0.1462792158126831,0.8761067986488342,-0.2768751382827759,0.2751845717430115,0.8510618209838867,1.6768548488616943
1764808631.650738,4.739653610190749,-0.47816287116110323,-0.4676917460292577,-0.06908140331506729,0.5489557385444641,-1.930184006690979,,,,,,
1764808631.658641,,,,,,,-0.1391298770904541,0.840390682220459,-0.3379908800125122,0.7093557119369507,0.9456453323364258,1.6027500629425049
1764808631.660791,5.553225078526139,-0.569084082058072,-0.1490291164726019,-0.15114563703536987,0.4897022545337677,-1.8176523447036743,,,,,,
1764808631.66867,,,,,,,-0.07927596569061279,0.7321637868881226,-0.35823559761047363,0.8307969570159912,0.8798844218254089,1.5230613946914673
1764808631.670843,6.215099087962508,-0.3917208515048027,-0.3257622324287891,-0.21663270890712738,0.4128979742527008,-1.6931449174880981,,,,,,
1764808631.6787,,,,,,,-0.021391868591308594,0.5990681648254395,-0.34980833530426025,0.6066051125526428,0.6936200261116028,1.3833953142166138
1764808631.680895,6.58839464046061,-0.3479173656135797,-0.767332571990788,-0.24631737172603607,0.34670138359069824,-1.5737546682357788,,,,,,
1764808631.68873,,,,,,,-0.01545339822769165,0.5170491337776184,-0.3423365354537964,0.24809929728507996,0.47623178362846375,1.2677357196807861
1764808631.690948,6.821656868368387,-0.7001280445069075,-1.1531380619719624,-0.26296645402908325,0.26926881074905396,-1.4686614274978638,,,,,,
1764808631.698761,,,,,,,-0.07003778219223022,0.5183756351470947,-0.358439564704895,-0.1130937784910202,0.3452620506286621,1.2304141521453857
1764808631.701,7.099502334368228,-1.314239601293206,-1.218665596154332,-0.3143492341041565,0.12864325940608978,-1.3748893737792969,,,,,,
1764808631.708791,,,,,,,-0.13953053951263428,0.6003747582435608,-0.38272273540496826,-0.3529230058193207,0.23956811428070068,1.2418384552001953
1764808631.711053,7.535161111798882,-1.801314093184471,-1.1039403158217669,-0.38494962453842163,-0.09295816719532013,-1.2734525203704834,,,,,,
1764808631.718821,,,,,,,-0.19094467163085938,0.6493691205978394,-0.38768064975738525,-0.46979397535324097,0.09571079909801483,1.1833070516586304
1764808631.721105,7.919117759042978,-2.101472513279319,-1.140902557516098,-0.4400150179862976,-0.34161219000816345,-1.1405261754989624,,,,,,
1764808631.728851,,,,,,,-0.22767621278762817,0.6706269979476929,-0.3471791744232178,-0.6204963326454163,-0.015118508599698544,1.0860968828201294
1764808631.731157,8.045141847503185,-2.0641268252253533,-1.299739366775751,-0.4716108441352844,-0.5513518452644348,-0.9877183437347412,,,,,,
1764808631.73888,,,,,,,-0.24552041292190552,0.6588932871818542,-0.3237537145614624,-0.7412232756614685,-0.13370400667190552,0.9796131253242493
1764808631.741209,7.859206018915772,-1.9077806637376546,-1.457563784122467,-0.47853678464889526,-0.7193871736526489,-0.8437994122505188,,,,,,
1764808631.74891,,,,,,,-0.25935792922973633,0.6449798941612244,-0.341128945350647,-0.9394153356552124,-0.24448777735233307,0.8449974060058594
1764808631.751261,7.452776258578896,-2.0453437988221643,-1.5581895196929574,-0.4799778163433075,-0.8177307844161987,-0.7276118397712708,,,,,,
1764808631.75894,,,,,,,-0.2736804485321045,0.7108768224716187,-0.3101326525211334,-1.099177360534668,-0.3298548758029938,0.7592441439628601
1764808631.761314,7.0827744869291775,-2.122888226273656,-1.6851245855182408,-0.4712468981742859,-0.8019168972969055,-0.5996989011764526,,,,,,
1764808631.768971,,,,,,,-0.27590411901474,0.7594707608222961,-0.3082834482192993,-1.0599431991577148,-0.4288049042224884,0.7423503994941711
1764808631.771366,6.845121915107965,-2.0761276441425083,-1.7652666282474994,-0.4684864580631256,-0.7215011715888977,-0.4644912779331207,,,,,,
1764808631.779002,,,,,,,-0.2785181403160095,0.8128522038459778,-0.315751314163208,-1.0307751893997192,-0.510316789150238,0.5767031311988831
1764808631.781418,6.641015054535865,-2.093125540694594,-1.8293512701451777,-0.46194228529930115,-0.6166823506355286,-0.3219277560710907,,,,,,
1764808631.789032,,,,,,,-0.31374382972717285,0.8786817193031311,-0.3275449275970459,-0.8881960511207581,-0.5344697833061218,0.3400611877441406
1764808631.791471,6.617807197427749,-2.1135586723923683,-1.881177318972349,-0.47390270233154297,-0.5598868131637573,-0.17454160749912262,,,,,,
1764808631.799062,,,,,,,-0.3317645192146301,0.9050554037094116,-0.36887872219085693,-0.7666214108467102,-0.5084379315376282,0.18078045547008514
1764808631.801523,6.807018102163076,-2.070471810337901,-1.8843582870960234,-0.5214889049530029,-0.5464658141136169,-0.01654851622879505,,,,,,
1764808631.809092,,,,,,,-0.3129088878631592,0.9354599118232727,-0.28589463233947754,-0.6678507328033447,-0.49596741795539856,0.060711570084095
1764808631.811575,6.966999405282736,-1.6057044273227452,-2.385523848181963,-0.5029923319816589,-0.4540574848651886,0.1765795201063156,,,,,,
1764808631.819122,,,,,,,-0.2856823205947876,0.9150492548942566,-0.1831803321838379,-0.5746278166770935,-0.5143866539001465,-0.12069603055715561
1764808631.821628,6.905178616663814,-0.7875444621533155,-3.059384063488245,-0.39639467000961304,-0.29207271337509155,0.378834068775177,,,,,,
1764808631.829151,,,,,,,-0.2684318423271179,0.8705008029937744,-0.1192476749420166,-0.5694034099578857,-0.4935798943042755,-0.3197891116142273
1764808631.83168,6.650739745214581,0.0009054244071245193,-3.160366649672389,-0.2518063187599182,-0.20618392527103424,0.5750254392623901,,,,,,
1764808631.839181,,,,,,,-0.23667079210281372,0.857311487197876,-0.08068633079528809,-0.6014841198921204,-0.4550088047981262,-0.4918607175350189
1764808631.841732,6.37949528491497,0.5312187540441751,-2.8293589178055525,-0.10363603383302689,-0.25513359904289246,0.7571491599082947,,,,,,
1764808631.849211,,,,,,,-0.1934794783592224,0.8575854301452637,-0.0858536958694458,-0.5288233160972595,-0.4943855106830597,-0.7216141819953918
1764808631.851785,6.163734226906299,0.5668003550350665,-2.4293729267805815,0.03728114068508148,-0.4017944037914276,0.9194579124450684,,,,,,
1764808631.859241,,,,,,,-0.16325688362121582,0.8598147034645081,-0.1119316816329956,-0.41782519221305847,-0.5379265546798706,-1.0012964010238647
1764808631.861837,6.077248368108272,0.2255032843440771,-1.979588008841872,0.13649746775627136,-0.5645007491111755,1.055045247077942,,,,,,
1764808631.869272,,,,,,,-0.15534347295761108,0.8638400435447693,-0.11099052429199219,-0.3326508700847626,-0.5150353908538818,-1.2647606134414673
1764808631.871889,5.939163839498162,0.0003565583527088165,-1.8468179532527922,0.2495238333940506,-0.6191384792327881,1.2097469568252563,,,,,,
1764808631.879302,,,,,,,-0.1668587327003479,0.8398851156234741,-0.029608488082885742,-0.23948551714420319,-0.3865112364292145,-1.4599698781967163
1764808631.881941,5.524281308114528,0.422750196018815,-2.19315360263288,0.4246852695941925,-0.4465771019458771,1.4233380556106567,,,,,,
1764808631.889333,,,,,,,-0.1683453917503357,0.8164163827896118,-0.02815687656402588,-0.17789672315120697,-0.22696471214294434,-1.6559242010116577
1764808631.891994,4.93113129081428,1.146704521793127,-2.2262866414278744,0.5881307125091553,-0.23253872990608215,1.653686285018921,,,,,,
1764808631.899363,,,,,,,-0.13849937915802002,0.8201199173927307,-0.07287895679473877,-0.0801888108253479,-0.1305609494447708,-1.8869569301605225
1764808631.902046,4.409604494222998,1.4497463883697985,-1.8550211334526538,0.7179800868034363,-0.14668916165828705,1.8826653957366943,,,,,,
1764808631.909393,,,,,,,-0.08194077014923096,0.8412862420082092,-0.10443949699401855,0.08868223428726196,-0.11679001152515411,-2.143683671951294
1764808631.912098,4.174290009960532,1.1919219661355018,-1.5159616125553845,0.7889956831932068,-0.20117078721523285,2.089587450027466,,,,,,
1764808631.919423,,,,,,,-0.027201533317565918,0.8580848574638367,-0.12829923629760742,0.26229315996170044,-0.16669976711273193,-2.398857355117798
1764808631.922151,4.1848230944126845,0.6556570346176623,-1.4442285017311571,0.8100108504295349,-0.31469517946243286,2.239762306213379,,,,,,
1764808631.929453,,,,,,,0.0010873079299926758,0.8238108158111572,-0.06173694133758545,0.4004306495189667,-0.2354242354631424,-2.602987051010132
1764808631.932203,4.226732729381323,0.3828355342596769,-1.9184572483137248,0.8990669250488281,-0.3062524199485779,2.3674063682556152,,,,,,
1764808631.939482,,,,,,,-0.011012613773345947,0.7106485366821289,0.06342780590057373,0.47634193301200867,-0.24096228182315826,-2.762646198272705
1764808631.942255,4.117973663976788,0.6238134511113167,-2.600762051360309,1.0823074579238892,-0.08631114661693573,2.497673511505127,,,,,,
1764808631.949512,,,,,,,-0.045193612575531006,0.59938645362854,0.07107329368591309,0.4463835060596466,-0.07277781516313553,-2.9096336364746094
1764808631.952308,3.81600731767714,1.1687000805020331,-2.4048519412472844,1.232793927192688,0.1546759009361267,2.644010305404663,,,,,,
1764808631.959543,,,,,,,-0.02896970510482788,0.5662354826927185,-0.0018005380406975746,0.3873883783817291,0.1414671093225479,-3.034794569015503
1764808631.96236,3.547538167309761,1.748090452519059,-1.5482494326978922,1.2812707424163818,0.2176094651222229,2.8153879642486572,,,,,,
1764808631.969573,,,,,,,0.06587648391723633,0.5826461315155029,-0.09097123146057129,0.4247185289859772,0.16784492135047913,-3.222562313079834
1764808631.972412,3.3906302802860733,1.825072569912672,-0.7938330409035086,1.233581781387329,0.06683512032032013,2.9805169105529785,,,,,,
1764808631.979603,,,,,,,0.18583464622497559,0.6117268800735474,-0.13389945030212402,0.5119447708129883,-0.01603410392999649,-3.430983304977417
1764808631.982464,3.309712284748256,1.3972855487704277,-0.6616285102427005,1.1534725427627563,-0.14747679233551025,3.0944392681121826,,,,,,
1764808631.989633,,,,,,,0.27279341220855713,0.6037104725837708,-0.08568549156188965,0.5904263854026794,-0.3113384544849396,-3.5514132976531982
1764808631.992517,3.2406112759932872,0.949466962468624,-1.1522048727750778,1.1158007383346558,-0.28032779693603516,3.1672704219818115,,,,,,
1764808631.999664,,,,,,,0.2722879648208618,0.5196123123168945,0.006156801246106625,0.5733219385147095,-0.526379406452179,-3.6134912967681885
1764808632.002569,3.095528851319849,0.6857488060206175,-1.977576084497571,1.163434624671936,-0.25975778698921204,3.2091565132141113,,,,,,
1764808632.009694,,,,,,,0.1761690378189087,0.4019073247909546,0.149072527885437,0.44132354855537415,-0.48211047053337097,-3.661068916320801
1764808632.012621,2.745780763147771,0.8386398586183786,-2.5637428187817335,1.2862321138381958,-0.039920248091220856,3.2477262020111084,,,,,,
1764808632.019723,,,,,,,0.07609236240386963,0.34140467643737793,0.2098771333694458,0.31380581855773926,-0.18144996464252472,-3.6363847255706787
1764808632.022674,2.329936985516548,1.606245694592595,-2.421337796624005,1.402201533317566,0.2673499882221222,3.2986197471618652,,,,,,
1764808632.029753,,,,,,,0.07975143194198608,0.3344345986843109,0.11050724983215332,0.37734758853912354,0.08790374547243118,-3.656280279159546
1764808632.032726,1.9767782121181487,2.3901444937199354,-1.5157558608502149,1.3980666399002075,0.40311288833618164,3.3605031967163086,,,,,,
1764808632.039783,,,,,,,0.1884521245956421,0.4046880602836609,-0.028907058760523796,0.534000813961029,0.20689618587493896,-3.786815881729126
1764808632.042778,1.819087650284171,2.8771809916883706,-0.4756581948637962,1.2328886985778809,0.24066658318042755,3.4171371459960938,,,,,,
1764808632.049814,,,,,,,0.37314915657043457,0.49002528190612793,-0.09775197505950928,0.7708666324615479,0.10488618910312653,-3.870636463165283
1764808632.052831,1.9292361242204903,3.0718162595599887,0.05522007517963647,1.011657953262329,-0.14720790088176727,3.447446584701538,,,,,,
1764808632.059844,,,,,,,0.5796072483062744,0.49261942505836487,-0.021418217569589615,0.9159111976623535,-0.31567275524139404,-3.9030840396881104
1764808632.062883,2.026810363265872,3.1288322782456874,-0.6409215300396084,0.9773092865943909,-0.4583202600479126,3.4644124507904053,,,,,,
1764808632.069874,,,,,,,0.6459535360336304,0.38657572865486145,0.22838032245635986,0.7816418409347534,-0.7736197710037231,-3.9222521781921387
1764808632.072935,1.8995960421077906,3.2931185850828886,-2.0309400104165074,1.1801602840423584,-0.441434383392334,3.5213735103607178,,,,,,
1764808632.079904,,,,,,,0.5120365023612976,0.1765519082546234,0.3418058156967163,0.48610636591911316,-0.9432639479637146,-3.9619081020355225
1764808632.082987,1.3598716177858412,3.25279417347908,-2.673834594094753,1.4048869609832764,-0.23830504715442657,3.5802855491638184,,,,,,
1764808632.089933,,,,,,,0.26354748010635376,-0.011505156755447388,0.3536827564239502,0.09155413508415222,-0.619488000869751,-3.991178274154663
1764808632.093041,0.6700820119418204,2.740311684086919,-2.084046746703982,1.454384207725525,-0.07866104692220688,3.556706190109253,,,,,,
1764808632.099963,,,,,,,0.10622787475585938,0.0019201859831809998,0.32014816999435425,-0.19353991746902466,0.08614152669906616,-3.8764026165008545
1764808632.103093,0.29163682159557935,2.7847756797134875,-1.1306015282541513,1.3608121871948242,-0.0550856776535511,3.436957359313965,,,,,,
1764808632.109993,,,,,,,0.2242894172668457,0.12765249609947205,0.18250411748886108,-0.15233328938484192,0.38526618480682373,-3.8408896923065186
1764808632.113145,0.44146118009909985,3.4464018518686292,-0.278329742385447,1.2237308025360107,-0.3178716003894806,3.3205032348632812,,,,,,
1764808632.120024,,,,,,,0.5145336985588074,0.2260807603597641,0.05336105823516846,0.05239110067486763,0.13486486673355103,-3.9858860969543457
1764808632.123198,0.8141347282413393,4.0967648717314,0.5650228239685297,1.0772426128387451,-0.8455908894538879,3.2451653480529785,,,,,,
1764808632.130054,,,,,,,0.7533377408981323,0.23387393355369568,0.0856969952583313,0.1278766244649887,-0.2847033739089966,-4.023630142211914
1764808632.13325,0.9629085547786206,4.618616077971458,0.2855567710295319,1.0985091924667358,-1.293512225151062,3.205944776535034,,,,,,
1764808632.140085,,,,,,,0.813232421875,0.12581895291805267,0.2640836834907532,0.0013687503524124622,-0.5796008110046387,-3.986837387084961
1764808632.143302,0.6995197033502161,4.992753341990709,-0.6808750625044107,1.3197880983352661,-1.3989558219909668,3.233109474182129,,,,,,
1764808632.150115,,,,,,,0.6502552032470703,-0.047575220465660095,0.3298218846321106,-0.27446961402893066,-0.5835829973220825,-3.9653284549713135
