timestamp,phone_accel_x,phone_accel_y,phone_accel_z,phone_gyro_x,phone_gyro_y,phone_gyro_z,watch_accel_x,watch_accel_y,watch_accel_z,watch_gyro_x,watch_gyro_y,watch_gyro_z
1764808635.464952,4.234576428619027,-0.163960143622756,-1.3495868090063332,0.20934955775737762,-0.22277991473674774,0.775267481803894,,,,,,
1764808635.470072,,,,,,,-0.13724172115325928,0.6778714656829834,-0.12867015600204468,-0.21504610776901245,-0.23703491687774658,-0.8910900950431824
1764808635.475004,4.176592441684007,-0.12842238177359103,-1.2766232796043158,0.23203115165233612,-0.21346428990364075,0.909085750579834,,,,,,
1764808635.480102,,,,,,,-0.11954182386398315,0.6946417093276978,-0.12353968620300293,-0.07107848674058914,-0.1911901980638504,-1.0387787818908691
1764808635.485056,4.1373651776671405,0.29067922860980033,-1.3305898475915192,0.2934458553791046,-0.24856162071228027,1.0557570457458496,,,,,,
1764808635.490132,,,,,,,-0.08413827419281006,0.6497002243995667,-0.07544094324111938,-0.07204335182905197,-0.20714733004570007,-1.227371335029602
1764808635.495109,4.021912752103805,0.7271288641571998,-1.537367388677597,0.41726791858673096,-0.2864147424697876,1.204698085784912,,,,,,
1764808635.500162,,,,,,,-0.06581437587738037,0.5662083625793457,-0.03586214780807495,-0.20574767887592316,-0.22713860869407654,-1.4426287412643433
1764808635.505161,3.873270004600286,0.8077198196977377,-1.5474924768507479,0.5437968969345093,-0.3444196283817291,1.3394140005111694,,,,,,
1764808635.510192,,,,,,,-0.06438708305358887,0.5285924673080444,-0.010010000318288803,-0.41062411665916443,-0.22810427844524384,-1.6297086477279663
1764808635.515213,3.894081906482577,0.5821276880264282,-1.3040408633619547,0.6251958608627319,-0.4443150758743286,1.4546798467636108,,,,,,
1764808635.520222,,,,,,,-0.06939107179641724,0.5303986072540283,-0.01116245612502098,-0.5377472639083862,-0.24176310002803802,-1.7956409454345703
1764808635.525265,3.893877323821187,0.24989888993203638,-1.2990011156290768,0.6792505979537964,-0.5356781482696533,1.5521681308746338,,,,,,
1764808635.530252,,,,,,,-0.08590495586395264,0.493876576423645,-0.020608600229024887,-0.619821310043335,-0.22099630534648895,-1.9585484266281128
1764808635.535318,3.8047424118191002,-0.03696691786944866,-1.4852438182085752,0.7237850427627563,-0.5562667846679688,1.6236358880996704,,,,,,
1764808635.540282,,,,,,,-0.0932660698890686,0.4820876717567444,-0.03188013285398483,-0.6990786194801331,-0.14444079995155334,-2.0245308876037598
1764808635.54537,3.8375656540125607,-0.01566051046848297,-1.4740882179439068,0.7368297576904297,-0.5821647047996521,1.7044646739959717,,,,,,
1764808635.550312,,,,,,,-0.057465970516204834,0.49510979652404785,-0.06297248601913452,-0.7319731712341309,-0.07775100320577621,-2.0586841106414795
1764808635.555422,3.9671629247844216,0.5127987157344818,-1.2202537421286106,0.7331503033638,-0.7087322473526001,1.8411186933517456,,,,,,
1764808635.560342,,,,,,,0.012789130210876465,0.47557371854782104,-0.06034190207719803,-0.7331925630569458,-0.13372930884361267,-2.210052967071533
1764808635.565475,3.820075005507469,1.0512024128466844,-1.1806313413143157,0.7494919300079346,-0.8864067792892456,1.9836288690567017,,,,,,
1764808635.570372,,,,,,,0.06917661428451538,0.43880653381347656,-0.025671295821666718,-0.8598855137825012,-0.2590147852897644,-2.40466570854187
1764808635.575527,3.3101609052985905,1.258662675499916,-1.460088918685913,0.8132683038711548,-0.9902921319007874,2.071320056915283,,,,,,
1764808635.580402,,,,,,,0.08725094795227051,0.4228605031967163,0.035980112850666046,-1.0645772218704224,-0.38322994112968445,-2.4871885776519775
1764808635.585579,2.6929969752043483,1.2561854717314243,-1.850117579320073,0.9286782145500183,-0.9372787475585938,2.122072696685791,,,,,,
1764808635.590433,,,,,,,0.053728580474853516,0.34176701307296753,0.08045721799135208,-1.1941219568252563,-0.4041248559951782,-2.5669455528259277
1764808635.595632,2.123175226521492,0.9556038577884435,-1.987027803453803,1.040827751159668,-0.7428953647613525,2.1454503536224365,,,,,,
1764808635.600463,,,,,,,-0.027123868465423584,0.2962528467178345,0.09636040031909943,-1.2869749069213867,-0.26635977625846863,-2.5974698066711426
1764808635.605684,1.7650220058366655,0.4338233786970377,-1.665409246701002,1.0987260341644287,-0.49817293882369995,2.1484696865081787,,,,,,
1764808635.610493,,,,,,,-0.07168740034103394,0.34283190965652466,0.03863126039505005,-1.0590877532958984,-0.0672360435128212,-2.608607530593872
1764808635.615736,1.77890790784806,0.01873743369579315,-0.9710159464538097,1.0545892715454102,-0.36485323309898376,2.1689646244049072,,,,,,
1764808635.620523,,,,,,,-0.05400639772415161,0.4532168507575989,-0.063839390873909,-0.613271176815033,0.14077921211719513,-2.6298179626464844
1764808635.625788,2.1709534612625836,0.11823358071446419,-0.32400983580350873,0.9339061975479126,-0.4171219766139984,2.2351608276367188,,,,,,
1764808635.630553,,,,,,,0.033991336822509766,0.5722941160202026,-0.12537461519241333,-0.09515854716300964,0.20247747004032135,-2.7150487899780273
1764808635.635841,2.573008659777045,0.6522545326977968,-0.2983522474557161,0.8508440852165222,-0.5563442707061768,2.3444876670837402,,,,,,
1764808635.640583,,,,,,,0.1246982216835022,0.580644428730011,-0.07425905764102936,0.23073026537895203,0.11419713497161865,-2.8000094890594482
1764808635.645893,2.504270346854627,1.4606097276896237,-1.188426525235176,0.9353858232498169,-0.5028046369552612,2.48169207572937,,,,,,
1764808635.650613,,,,,,,0.17903506755828857,0.4299735128879547,0.06277881562709808,0.4014037251472473,0.018424537032842636,-2.8806867599487305
1764808635.655945,1.8830586026743052,2.2409137171953915,-1.9998843624174594,1.1298471689224243,-0.23229435086250305,2.6013598442077637,,,,,,
1764808635.660643,,,,,,,0.17235976457595825,0.25257912278175354,0.14918400347232819,0.2486293911933899,0.04132159799337387,-2.9234843254089355
1764808635.665998,1.0738868306025862,2.5277421155959368,-1.7952382804021239,1.2933827638626099,0.03243245184421539,2.6739861965179443,,,,,,
1764808635.670673,,,,,,,0.14847958087921143,0.19158324599266052,0.1419091820716858,0.09953843802213669,0.1349005550146103,-2.9501054286956787
1764808635.67605,0.6177469906792045,2.1660189274698496,-0.8748328695058822,1.347764492034912,0.08888401091098785,2.705718755722046,,,,,,
1764808635.680703,,,,,,,0.14357125759124756,0.22190922498703003,0.08507836610078812,0.13260143995285034,0.26783278584480286,-3.0135233402252197
1764808635.686102,0.5729758287996053,1.5720371355205773,-0.009807108265161514,1.2796311378479004,-0.03073939122259617,2.7037365436553955,,,,,,
1764808635.690733,,,,,,,0.18365496397018433,0.3037756681442261,0.015298910439014435,0.2681717574596405,0.4049117863178253,-3.1331608295440674
1764808635.696155,0.8392235037252307,1.5470388878643513,0.5133434901356697,1.1701381206512451,-0.25709155201911926,2.7059507369995117,,,,,,
1764808635.700763,,,,,,,0.27273327112197876,0.3234345316886902,0.007090389728546143,0.35926181077957153,0.387818306684494,-3.292276382446289
1764808635.706207,1.1445365301042794,2.041084972333908,0.5178960388734937,1.1142935752868652,-0.4885612428188324,2.7284047603607178,,,,,,
1764808635.710793,,,,,,,0.3553142547607422,0.2543649971485138,0.06499511003494263,0.17905530333518982,0.2052953541278839,-3.4171876907348633
1764808635.716259,1.0958940797492862,2.681045256125927,-0.3313113909885287,1.214371681213379,-0.5451797246932983,2.775428056716919,,,,,,
1764808635.720824,,,,,,,0.3799799680709839,0.13355417549610138,0.19281303882598877,-0.14517326653003693,-0.0006602078210562468,-3.3939762115478516
1764808635.726311,0.5563109635941684,3.072562109491229,-1.4606830851867794,1.424065113067627,-0.3602810502052307,2.8186283111572266,,,,,,
1764808635.730854,,,,,,,0.32504063844680786,-0.030548080801963806,0.21972423791885376,-0.36674854159355164,0.03225167095661163,-3.3829474449157715
1764808635.736364,-0.07033434994220733,2.6983815908521414,-1.5560560147956013,1.5300840139389038,-0.13850443065166473,2.7941696643829346,,,,,,
1764808635.740884,,,,,,,0.22068047523498535,-0.04161521792411804,0.1762034296989441,-0.48807230591773987,0.3879125714302063,-3.278545379638672
1764808635.746416,-0.13507161052972078,2.4142981072455645,-0.5006698865234852,1.4661365747451782,-0.05418848246335983,2.7271571159362793,,,,,,
1764808635.750914,,,,,,,0.23908638954162598,0.08293791115283966,0.08612228184938431,-0.30148059129714966,0.644367516040802,-3.168846845626831
1764808635.756468,0.24734628283977508,2.7310803298830986,0.5080427533790469,1.340489387512207,-0.20417211949825287,2.711378812789917,,,,,,
1764808635.760944,,,,,,,0.3774667978286743,0.1566356122493744,-0.007755152881145477,-0.055321380496025085,0.5646527409553528,-3.2699854373931885
1764808635.766521,0.5116421661105006,3.015798604261875,1.0555936335429548,1.2225254774093628,-0.5046711564064026,2.7524304389953613,,,,,,
1764808635.770974,,,,,,,0.4952649474143982,0.16808682680130005,0.0030466467142105103,-0.05701861530542374,0.2822210192680359,-3.3858182430267334
1764808635.776573,0.28197335958480835,3.014809593224525,0.6901072934910655,1.2156620025634766,-0.7333735823631287,2.788736581802368,,,,,,
1764808635.781004,,,,,,,0.5177314877510071,0.08705779165029526,0.11176234483718872,-0.21290650963783264,0.034665025770664215,-3.3868634700775146
1764808635.786625,-0.33329244527053087,2.7890216467201707,-0.2875982137292623,1.342267632484436,-0.727480411529541,2.8011314868927,,,,,,
1764808635.791034,,,,,,,0.4072125554084778,-0.04746113717556,0.1980692744255066,-0.4778551161289215,0.04142412915825844,-3.3999903202056885
1764808635.796678,-0.9430154482416808,2.537870126378536,-0.7828364305928349,1.4617942571640015,-0.5536998510360718,2.7894370555877686,,,,,,
1764808635.801064,,,,,,,0.25293171405792236,-0.10249961912631989,0.20014828443527222,-0.7621424198150635,0.3144972026348114,-3.3864152431488037
1764808635.80673,-1.2220025585573167,2.5901509332358836,-0.462280826896429,1.5059545040130615,-0.38612326979637146,2.7709572315216064,,,,,,
1764808635.811094,,,,,,,0.2125394344329834,-0.09206625819206238,0.16243118047714233,-0.8191087245941162,0.5476846694946289,-3.358975410461426
1764808635.816782,-1.2593357524558901,2.690661225733161,0.08902852901816367,1.5015310049057007,-0.31905317306518555,2.755908966064453,,,,,,
1764808635.821124,,,,,,,0.29100537300109863,-0.052161820232868195,0.10233300179243088,-0.7266368269920349,0.6151247024536133,-3.4030978679656982
1764808635.826834,-1.2785766056291759,2.70315888825655,0.6515431695580483,1.4516215324401855,-0.34667208790779114,2.7135372161865234,,,,,,
1764808635.831154,,,,,,,0.39281678199768066,0.01409822702407837,0.06554007530212402,-0.5843182802200317,0.6186912059783936,-3.398658037185669
1764808635.836887,-1.1693833865910768,2.7665876965939997,1.034511098025739,1.3838720321655273,-0.4461566209793091,2.6509289741516113,,,,,,
1764808635.841185,,,,,,,0.47053849697113037,0.037374675273895264,0.036625560373067856,-0.45548051595687866,0.5413492918014526,-3.331298589706421
1764808635.846939,-1.0021681136298923,2.824423214969039,1.0172460749700665,1.3492625951766968,-0.5901995897293091,2.599269151687622,,,,,,
1764808635.851215,,,,,,,0.4938971996307373,-0.01896810531616211,0.03577322140336037,-0.4838317334651947,0.4128333628177643,-3.308090925216675
1764808635.856991,-0.8815624700218438,2.6448651047199965,0.6758180713757872,1.3643198013305664,-0.7016938924789429,2.5624544620513916,,,,,,
1764808635.861245,,,,,,,0.44511091709136963,-0.1352783441543579,0.06996721029281616,-0.6913173794746399,0.36500832438468933,-3.2998197078704834
1764808635.867044,-0.9411679206788539,2.4210937587350605,0.32144846088290213,1.395339846611023,-0.7043413519859314,2.5179765224456787,,,,,,
1764808635.871275,,,,,,,0.36821842193603516,-0.24570894241333008,0.128534197807312,-0.9683324694633484,0.44505974650382996,-3.1884918212890625
1764808635.877096,-1.1731589596070349,2.4081267251342533,0.11164718806147575,1.424867033958435,-0.5782113671302795,2.4576916694641113,,,,,,
1764808635.881305,,,,,,,0.3272974491119385,-0.30043983459472656,0.1304018497467041,-1.155826449394226,0.5785664319992065,-3.0456016063690186
1764808635.887148,-1.4517970372892914,2.4929642322033643,0.35419440005645153,1.4181444644927979,-0.45581603050231934,2.3749477863311768,,,,,,
1764808635.891335,,,,,,,0.3328031897544861,-0.2881249189376831,0.09917986392974854,-1.163179636001587,0.7006542086601257,-2.942884683609009
1764808635.897201,-1.6527796283610163,2.66951380828619,0.883200738748163,1.3707610368728638,-0.4049728214740753,2.267159938812256,,,,,,
1764808635.901365,,,,,,,0.3859354257583618,-0.21200889348983765,0.0470350980758667,-1.0425745248794556,0.7426658868789673,-2.8115410804748535
1764808635.907253,-1.7126640420898793,2.9187387444794175,1.2628329469218849,1.3335697650909424,-0.45180919766426086,2.1572484970092773,,,,,,
1764808635.911395,,,,,,,0.451551616191864,-0.14175459742546082,-0.0007976293563842773,-0.8228844404220581,0.6807274222373962,-2.682788848876953
1764808635.917305,-1.6683517298936843,2.8783266545921564,1.4920492604397237,1.3138439655303955,-0.5699397921562195,2.062012195587158,,,,,,
1764808635.921425,,,,,,,0.46289318799972534,-0.14036825299263,-0.02080511674284935,-0.6438422799110413,0.6337002515792847,-2.5746641159057617
1764808635.927358,-1.7188748794287443,2.617168704020977,1.6012778430521488,1.2934596538543701,-0.654330313205719,1.9697858095169067,,,,,,
1764808635.931455,,,,,,,0.42549580335617065,-0.18900921940803528,-0.03327799215912819,-0.605084240436554,0.6407182216644287,-2.4518840312957764
1764808635.93741,-1.8408695662423966,2.3445950409442187,1.4780335945688188,1.2785634994506836,-0.6542834639549255,1.886238694190979,,,,,,
1764808635.941485,,,,,,,0.3843080997467041,-0.25917911529541016,-0.05350542068481445,-0.6655572056770325,0.6269888281822205,-2.3592357635498047
1764808635.947462,-1.9410116099491714,1.9147206921339035,1.371460202640295,1.255353331565857,-0.6224755644798279,1.8210994005203247,,,,,,
1764808635.951515,,,,,,,0.3423807621002197,-0.32428640127182007,-0.047434452921152115,-0.8036852478981018,0.5705779790878296,-2.2591841220855713
1764808635.957514,-2.0044407105475663,1.3322761932432652,1.2980104971565305,1.222200870513916,-0.5934825539588928,1.7425981760025024,,,,,,
1764808635.961546,,,,,,,0.2952258586883545,-0.3492594361305237,-0.03677356615662575,-0.9220038056373596,0.5211142897605896,-2.144376516342163
1764808635.967567,-2.0786361198320984,0.7293173141121864,1.188505874081701,1.1770013570785522,-0.5701076984405518,1.624971628189087,,,,,,
1764808635.971576,,,,,,,0.23440855741500854,-0.3345642685890198,-0.036809682846069336,-0.944702684879303,0.6046944260597229,-2.0173676013946533
1764808635.977619,-2.1397803243637084,0.5774444986462592,1.4760276615738868,1.0800002813339233,-0.5368895530700684,1.4664632081985474,,,,,,
1764808635.981606,,,,,,,0.20635247230529785,-0.2762046456336975,-0.06597267836332321,-0.8487635254859924,0.7835355401039124,-1.853708267211914
1764808635.987671,-1.9990873668208717,1.1876035184144973,1.8693746529757975,0.9786357283592224,-0.48953530192375183,1.3219801187515259,,,,,,
1764808635.991636,,,,,,,0.26404500007629395,-0.2091873288154602,-0.1329331398010254,-0.643693208694458,0.7872812747955322,-1.7208495140075684
1764808635.997725,-1.6655705747425555,1.8927526059538125,1.9623674094498156,0.9439904093742371,-0.47536250948905945,1.2565709352493286,,,,,,
1764808636.001666,,,,,,,0.35223114490509033,-0.1851898431777954,-0.17548809945583344,-0.4580216407775879,0.6171058416366577,-1.6553298234939575
1764808636.007776,-1.4743503760114312,2.0539409467756746,1.9893501089215277,0.9457389712333679,-0.49210625886917114,1.2513542175292969,,,,,,
1764808636.011696,,,,,,,0.37839722633361816,-0.22329604625701904,-0.16830061376094818,-0.4498656988143921,0.48040443658828735,-1.572660207748413
1764808636.017828,-1.5921087404295802,1.7530822694569825,2.0673802740633485,0.9348666071891785,-0.5094922184944153,1.2403181791305542,,,,,,
1764808636.021726,,,,,,,0.33000147342681885,-0.2758617401123047,-0.14417648315429688,-0.6253808736801147,0.41864892840385437,-1.4707492589950562
1764808636.027881,-1.8478931812688708,1.1946551904916762,1.9775883594572543,0.9136801958084106,-0.5105004906654358,1.1778010129928589,,,,,,
1764808636.031756,,,,,,,0.26007968187332153,-0.32977986335754395,-0.12503838539123535,-0.8392992615699768,0.37768790125846863,-1.3937360048294067
1764808636.037933,-2.014051711718738,0.6463350795209407,1.7403987289726732,0.8890497088432312,-0.5044277310371399,1.0740270614624023,,,,,,
1764808636.041786,,,,,,,0.2025212049484253,-0.3566034436225891,-0.11407007277011871,-1.0437474250793457,0.3417527973651886,-1.3362046480178833
1764808636.047985,-1.9471786081463098,0.30728783358335493,1.5117805274784564,0.854469358921051,-0.5105633735656738,0.9624307155609131,,,,,,
1764808636.051816,,,,,,,0.1629171371459961,-0.3222513794898987,-0.10024584829807281,-1.1599537134170532,0.34346866607666016,-1.264352798461914
1764808636.058038,-1.7695684170946477,0.12622282590270043,1.5264520269095896,0.7777905464172363,-0.5255628228187561,0.8575996160507202,,,,,,
1764808636.061846,,,,,,,0.14237314462661743,-0.2558608055114746,-0.10135260224342346,-1.2275876998901367,0.44524750113487244,-1.1694880723953247
1764808636.06809,-1.5956296080321073,0.5763245547056198,1.6980676537215709,0.6776488423347473,-0.5063915848731995,0.7530527710914612,,,,,,
1764808636.071876,,,,,,,0.1822347640991211,-0.1954939365386963,-0.13905490934848785,-1.2385681867599487,0.4732455909252167,-1.0598732233047485
1764808636.078142,-1.3220730713978408,1.35276368547678,1.5997703610986471,0.6101041436195374,-0.46349576115608215,0.6924986243247986,,,,,,
1764808636.081906,,,,,,,0.26613420248031616,-0.18619877099990845,-0.1683027744293213,-1.2046823501586914,0.3300713896751404,-0.9758639931678772
1764808636.088195,-1.0822487084954977,1.7472171768158673,1.3635755868703126,0.5658387541770935,-0.4172944724559784,0.6776590347290039,,,,,,
1764808636.091937,,,,,,,0.32660388946533203,-0.19266057014465332,-0.16174425184726715,-1.1974595785140991,0.15294799208641052,-0.8660027384757996
1764808636.098247,-1.0832137541353701,1.631108333170414,1.1641916631668805,0.5258282423019409,-0.3680366277694702,0.6614574193954468,,,,,,
1764808636.101967,,,,,,,0.3192691206932068,-0.18802934885025024,-0.13351236283779144,-1.1958096027374268,0.02373834140598774,-0.730182409286499
1764808636.108299,-1.2394073554098606,1.1688438728868962,0.9527239184379577,0.4890313744544983,-0.31020745635032654,0.6135249733924866,,,,,,
1764808636.111997,,,,,,,0.2546718120574951,-0.21036601066589355,-0.1038973331451416,-1.128010630607605,-0.045856181532144547,-0.6318065524101257
1764808636.118352,-1.4209043247669935,0.6479653110712766,0.8449649699866771,0.44860512018203735,-0.26831966638565063,0.5267900824546814,,,,,,
1764808636.122027,,,,,,,0.17236655950546265,-0.2481909990310669,-0.07844579219818115,-1.1038486957550049,-0.047649819403886795,-0.585227370262146
1764808636.128404,-1.5204004717856645,0.2671130595833063,0.9451502683132886,0.4028981328010559,-0.2704978883266449,0.4138418734073639,,,,,,
1764808636.132057,,,,,,,0.10829639434814453,-0.23120087385177612,-0.0629783570766449,-1.1101346015930176,0.021201947703957558,-0.526877224445343
1764808636.138456,-1.5486632741957902,0.25339842248558997,1.171262624466419,0.3373412489891052,-0.3057323098182678,0.29430508613586426,,,,,,
1764808636.142087,,,,,,,0.08841550350189209,-0.17137563228607178,-0.07665300369262695,-1.062660574913025,0.1357511729001999,-0.4585976302623749
1764808636.148508,-1.3877794692784546,0.7567173622131347,1.318365156790614,0.2783452868461609,-0.33043184876441956,0.21001191437244415,,,,,,
1764808636.152117,,,,,,,0.12320369482040405,-0.10913777351379395,-0.11324062943458557,-0.9301518797874451,0.17156855762004852,-0.3899482786655426
1764808636.158561,-1.0010603715837,1.3175754677176474,1.2126479433000088,0.2508617341518402,-0.352852463722229,0.20406721532344818,,,,,,
1764808636.162147,,,,,,,0.18991434574127197,-0.06835281848907471,-0.1446542739868164,-0.7889406681060791,0.08960044384002686,-0.38267117738723755
1764808636.168613,-0.7189630933582782,1.3970651840180157,1.163920445010066,0.21832275390625,-0.40532028675079346,0.2529313266277313,,,,,,
1764808636.172177,,,,,,,0.22737324237823486,-0.061664581298828125,-0.13213536143302917,-0.6850446462631226,0.007355907000601292,-0.37969934940338135
1764808636.178665,-0.731201812684536,1.2358932098090647,1.21661801597476,0.17149026691913605,-0.44724375009536743,0.29357463121414185,,,,,,
1764808636.182207,,,,,,,0.22326481342315674,-0.07610541582107544,-0.1015704870223999,-0.6777840852737427,-0.05900660529732704,-0.36955198645591736
1764808636.188718,-0.8992302286595105,1.0669815812587737,1.09413620323129,0.1385263055562973,-0.4542488753795624,0.30132532119750977,,,,,,
1764808636.192237,,,,,,,0.19616436958312988,-0.08609277009963989,-0.08946216106414795,-0.7034857273101807,-0.10908176004886627,-0.3792693316936493
1764808636.19877,-1.0483131211459635,0.9223492384403943,0.8994915099442005,0.12949499487876892,-0.45216041803359985,0.2928415536880493,,,,,,
1764808636.202267,,,,,,,0.15851014852523804,-0.12217122316360474,-0.07652963697910309,-0.7709183096885681,-0.13775120675563812,-0.4032743275165558
1764808636.208822,-1.1221756452143192,0.7358154439598321,0.8123287747979163,0.12847571074962616,-0.46155059337615967,0.2833566963672638,,,,,,
1764808636.212298,,,,,,,0.12476050853729248,-0.14379483461380005,-0.05846109986305237,-0.9025077819824219,-0.13382917642593384,-0.44017454981803894
1764808636.218875,-1.2141612704724072,0.656791591605544,0.8963240588892251,0.11200032383203506,-0.4770006537437439,0.26657718420028687,,,,,,
1764808636.222328,,,,,,,0.10910862684249878,-0.12991774082183838,-0.04049044847488403,-1.0947517156600952,-0.11308795213699341,-0.4186052978038788
1764808636.228927,-1.1286749441057442,0.771791597226262,0.8522253163784742,0.10545217990875244,-0.4545557498931885,0.24285972118377686,,,,,,
1764808636.232358,,,,,,,0.1284472942352295,-0.11180353164672852,-0.05370029807090759,-1.1794124841690063,-0.14254356920719147,-0.3833860456943512
1764808636.238979,-0.9028642012476921,0.8410901743799447,0.7673831331342458,0.10635525733232498,-0.42798805236816406,0.22831566631793976,,,,,,
1764808636.242388,,,,,,,0.14950650930404663,-0.11725044250488281,-0.07442602515220642,-1.136536955833435,-0.19089005887508392,-0.35113564133644104
1764808636.249032,-0.724922294023633,0.7675012065559625,0.8712919089633971,0.09084302186965942,-0.4213959872722626,0.22154264152050018,,,,,,
1764808636.252418,,,,,,,0.14127397537231445,-0.10420596599578857,-0.06917566061019897,-1.0421010255813599,-0.20139862596988678,-0.30442672967910767
1764808636.259084,-0.7417261293083429,0.5949848315119743,0.869290432947874,0.06781573593616486,-0.40925782918930054,0.20230449736118317,,,,,,
1764808636.262448,,,,,,,0.11279720067977905,-0.08133107423782349,-0.06505033373832703,-0.8909354209899902,-0.18905754387378693,-0.2534329891204834
1764808636.269136,-0.882839650350809,0.4221323563814163,0.6755635851580649,0.05686354637145996,-0.3862161338329315,0.15882337093353271,,,,,,
1764808636.272478,,,,,,,0.07819497585296631,-0.07696110010147095,-0.06145179271697998,-0.7388521432876587,-0.15893852710723877,-0.20997364819049835
1764808636.279189,-1.0418366186082362,0.3118167091846466,0.5325293251860886,0.04885968565940857,-0.35747185349464417,0.11818273365497589,,,,,,
1764808636.282508,,,,,,,0.051948606967926025,-0.08799612522125244,-0.0583014190196991,-0.6225841641426086,-0.12984216213226318,-0.16244974732398987
1764808636.289241,-1.0810966158509254,0.1966939539670944,0.48546829880364234,0.022863533347845078,-0.3434712886810303,0.08338483422994614,,,,,,
1764808636.292538,,,,,,,0.04024571180343628,-0.09202420711517334,-0.058076560497283936,-0.5206692814826965,-0.11066847294569016,-0.12130416929721832
1764808636.299293,-1.10117435823977,0.06623568245172501,0.3729179513573646,-0.012185798026621342,-0.31861016154289246,0.0451868511736393,,,,,,
1764808636.302568,,,,,,,0.04268848896026611,-0.08654052019119263,-0.04951059818267822,-0.4475313723087311,-0.09887918829917908,-0.09888234734535217
1764808636.309346,-1.0935066000908613,0.12105506787598132,0.2717084245495498,-0.048129837960004807,-0.26486971974372864,-0.006539251655340195,,,,,,
1764808636.312598,,,,,,,0.05364799499511719,-0.0979887843132019,-0.03486323356628418,-0.38302507996559143,-0.0806937962770462,-0.07391441613435745
1764808636.319398,-1.0076175381422041,0.41152971382439135,0.25636662464141846,-0.06098305433988571,-0.18627238273620605,-0.0538170151412487,,,,,,
1764808636.322628,,,,,,,0.07584273815155029,-0.10696041584014893,-0.028669089078903198,-0.4242100119590759,-0.09831885993480682,-0.05498147010803223
1764808636.32945,-0.8780465708553791,0.6874748991608619,0.21965046666264532,-0.03751177340745926,-0.13056853413581848,-0.07988088577985764,,,,,,
1764808636.332658,,,,,,,0.10126584768295288,-0.10328048467636108,-0.02561342716217041,-0.5083864331245422,-0.14506106078624725,-0.03257416561245918
1764808636.339503,-0.7864291943877935,0.7346639358371496,0.21476795531809328,-0.00480255950242281,-0.10183835029602051,-0.0804489329457283,,,,,,
1764808636.342689,,,,,,,0.10619395971298218,-0.12480884790420532,-0.008617013692855835,-0.585655927658081,-0.18038442730903625,0.007576316595077515
1764808636.349555,-0.728659726986289,0.592118920686841,0.26870997338593006,0.014403462409973145,-0.0894143134355545,-0.08745492249727249,,,,,,
1764808636.352719,,,,,,,0.08541262149810791,-0.11505943536758423,-0.002543210983276367,-0.6413071751594543,-0.1806318312883377,0.026887964457273483
1764808636.359607,-0.6726356419473886,0.4064069639831781,0.3595826689660549,0.0197332464158535,-0.09846160560846329,-0.10812851041555405,,,,,,
1764808636.362749,,,,,,,0.058848440647125244,-0.07456547021865845,-0.006127357482910156,-0.5804791450500488,-0.16339851915836334,0.05084748938679695
1764808636.36966,-0.548529954329133,0.23197920235991476,0.41883916005492206,0.012698306702077389,-0.11297228932380676,-0.12730340659618378,,,,,,
1764808636.372779,,,,,,,0.041447460651397705,-0.038593590259552,-0.020865052938461304,-0.42404666543006897,-0.14413827657699585,0.07705911993980408
1764808636.379712,-0.42130818051695823,0.12816811475157738,0.38756957704424855,-0.002644164487719536,-0.11188412457704544,-0.1340225636959076,,,,,,
1764808636.382809,,,,,,,0.029211997985839844,-0.010716140270233154,-0.03460988402366638,-0.2828400135040283,-0.1157657578587532,0.09789383411407471
1764808636.389764,-0.4077455191105604,0.07980886525213718,0.26244448325037956,-0.015191327780485153,-0.08017709851264954,-0.13702376186847687,,,,,,
1764808636.392839,,,,,,,0.01866072416305542,-0.011751770973205566,-0.036514610052108765,-0.17430129647254944,-0.08989155292510986,0.11898526549339294
1764808636.399817,-0.5143991366684436,0.024141338565945625,0.1307674835950136,-0.019049981608986855,-0.037656269967556,-0.14479486644268036,,,,,,
1764808636.402869,,,,,,,0.012553870677947998,-0.056162357330322266,-0.021170705556869507,-0.1395057588815689,-0.06488500535488129,0.14705631136894226
1764808636.409869,-0.6186287419497967,-0.022259178081154823,0.11124218745715915,-0.012689970433712006,-0.0063082193955779076,-0.16880251467227936,,,,,,
1764808636.412899,,,,,,,0.0067479610443115234,-0.07968306541442871,0.0063457489013671875,-0.17663075029850006,-0.040429990738630295,0.16047199070453644
1764808636.419921,-0.685609689810872,0.04344342040717602,0.11406418607532977,0.005176644306629896,0.022499725222587585,-0.19924777746200562,,,,,,
1764808636.422929,,,,,,,0.010665655136108398,-0.06483960151672363,0.016645431518554688,-0.16080784797668457,-0.031240755692124367,0.17900732159614563
1764808636.429974,-0.6122948627531528,0.1383276897162199,0.06018420039303601,0.028770744800567627,0.05598258227109909,-0.21242186427116394,,,,,,
1764808636.432959,,,,,,,0.01685410737991333,-0.042661309242248535,0.004446148872375488,-0.12666356563568115,-0.03250176087021828,0.1846710592508316
1764808636.440026,-0.5066296717107296,0.1243675534248352,0.02176072703972459,0.04551030695438385,0.09718035161495209,-0.20554399490356445,,,,,,
1764808636.442989,,,,,,,0.012202024459838867,-0.031373798847198486,-0.0009042024612426758,-0.08245484530925751,-0.013229262083768845,0.1872498095035553
1764808636.450078,-0.4756739769548177,0.011521510967612265,0.048425884994864464,0.04728500172495842,0.13056890666484833,-0.19972935318946838,,,,,,
1764808636.453019,,,,,,,0.0010710358619689941,-0.03731280565261841,0.0026617050170898438,-0.06896273791790009,0.00987658929079771,0.19464406371116638
1764808636.460131,-0.4432172299861908,-0.05073825359046459,0.03564005317986011,0.04783707484602928,0.14853166043758392,-0.20107638835906982,,,,,,
1764808636.46305,,,,,,,-0.0021811723709106445,-0.03100454807281494,0.0074548423290252686,-0.03465576469898224,0.016862859949469566,0.20894958078861237
1764808636.470183,-0.3680307638376951,-0.030899580654501914,-0.029283889086171983,0.05394485592842102,0.1586950123310089,-0.2024538516998291,,,,,,
1764808636.47308,,,,,,,-0.001551806926727295,-0.01809561252593994,0.009213417768478394,0.023209664970636368,0.01598960906267166,0.22243981063365936
1764808636.480235,-0.21245149506926536,-0.04954699797928333,-0.08005027279257775,0.05820298194885254,0.1697322130203247,-0.20119045674800873,,,,,,
1764808636.48311,,,,,,,-0.004941105842590332,-0.007954657077789307,0.005055934190750122,0.11407539248466492,0.031291067600250244,0.23684139549732208
1764808636.490287,-0.11097031171321868,-0.11807166815102099,-0.04991466224789619,0.05535021796822548,0.1854202151298523,-0.19900111854076385,,,,,,
1764808636.49314,,,,,,,-0.014280974864959717,-0.009501218795776367,0.003872305154800415,0.15291865170001984,0.053808361291885376,0.23743794858455658
1764808636.50034,-0.14246142852008342,-0.17282734068930147,-0.037794746995717284,0.060858432203531265,0.2011650949716568,-0.2031327486038208,,,,,,
1764808636.50317,,,,,,,-0.021090388298034668,-0.020409107208251953,0.008165806531906128,0.12620556354522705,0.07764285057783127,0.23297613859176636
1764808636.510392,-0.20535013863146304,-0.19226093995571136,-0.05975698795691132,0.0761304721236229,0.20801043510437012,-0.21645818650722504,,,,,,
1764808636.5132,,,,,,,-0.021535933017730713,-0.05206674337387085,0.019139796495437622,0.07500682771205902,0.09131205826997757,0.2385498732328415
1764808636.520444,-0.20241759231090545,-0.12007833179831504,-0.04356923874393105,0.09304767102003098,0.20604422688484192,-0.22730043530464172,,,,,,
1764808636.52323,,,,,,,-0.013667404651641846,-0.05509626865386963,0.02361801266670227,0.017354171723127365,0.08830162137746811,0.22336553037166595
1764808636.530497,-0.08797463605105876,-0.1021685810983181,0.0110309509716928,0.09595967084169388,0.1737266331911087,-0.22295935451984406,,,,,,
1764808636.53326,,,,,,,-0.007911622524261475,-0.0064580440521240234,0.006281554698944092,0.05259764567017555,0.07793473452329636,0.22106055915355682
1764808636.540549,0.04285363782048225,-0.16721826863586903,0.07634381949007511,0.0717073306441307,0.1367473155260086,-0.2047518491744995,,,,,,
1764808636.54329,,,,,,,-0.008337259292602539,0.03388404846191406,-0.0097922682762146,0.15274342894554138,0.0645265206694603,0.21808481216430664
1764808636.550601,0.14461422263979912,-0.2636351543396711,-0.05336904048547148,0.04808799549937248,0.13364288210868835,-0.19098399579524994,,,,,,
1764808636.55332,,,,,,,-0.018315672874450684,0.043530404567718506,-0.01438063383102417,0.21711896359920502,0.06980197131633759,0.2101597785949707
1764808636.560654,0.12269114464521408,-0.29896541091799733,-0.181544827086851,0.03911314159631729,0.15939486026763916,-0.18844227492809296,,,,,,
1764808636.56335,,,,,,,-0.02818971872329712,0.014963924884796143,-0.007337003946304321,0.20034758746623993,0.07075085490942001,0.21054847538471222
1764808636.570706,0.0923237711712718,-0.29774025303721424,-0.18864442995898426,0.04701220616698265,0.17559389770030975,-0.19144350290298462,,,,,,
1764808636.57338,,,,,,,-0.029599308967590332,-0.030450046062469482,0.010098576545715332,0.13138529658317566,0.05563129484653473,0.22131270170211792
1764808636.580758,0.0893351107493043,-0.3126560826182365,-0.1611971086502075,0.057983364909887314,0.16943693161010742,-0.1920565664768219,,,,,,
1764808636.583411,,,,,,,-0.027546346187591553,-0.04041731357574463,0.017787694931030273,0.04657219722867012,0.04039774835109711,0.2240743339061737
1764808636.590811,0.0909229644626379,-0.36530922991931436,-0.1594376977622509,0.060852210968732834,0.15334372222423553,-0.1971157342195511,,,,,,
1764808636.593441,,,,,,,-0.030646145343780518,-0.01663905382156372,0.014415264129638672,0.04128236323595047,0.021715937182307243,0.2405419945716858
1764808636.600863,0.16002894165366888,-0.451861139690876,-0.1894347035538405,0.05678023770451546,0.15795205533504486,-0.20831352472305298,,,,,,
1764808636.603471,,,,,,,-0.039742112159729004,0.0033358335494995117,0.006361186504364014,0.10058338940143585,0.01933906599879265,0.2571701407432556
1764808636.610915,0.2243941540583968,-0.5329682280600071,-0.26724983770549293,0.05140892416238785,0.17785397171974182,-0.22644439339637756,,,,,,
1764808636.613501,,,,,,,-0.057137906551361084,0.008233785629272461,0.010416597127914429,0.16534587740898132,0.04095195233821869,0.2652864158153534
1764808636.620968,0.2767103244900703,-0.4967290399432182,-0.2407650778185576,0.04980809614062309,0.19146619737148285,-0.23536571860313416,,,,,,
1764808636.623531,,,,,,,-0.06699985265731812,0.015651464462280273,0.025136560201644897,0.19022832810878754,0.08126448094844818,0.28409311175346375
1764808636.63102,0.31142829438894987,-0.3522849131733179,-0.21222645414173602,0.06602716445922852,0.20795410871505737,-0.22985024750232697,,,,,,
1764808636.633561,,,,,,,-0.059414446353912354,0.029783010482788086,0.02773234248161316,0.24259859323501587,0.09653957933187485,0.30659469962120056
1764808636.641072,0.32083588194251056,-0.24643676677942275,-0.2277683066666126,0.08705708384513855,0.22766202688217163,-0.20652228593826294,,,,,,
1764808636.643591,,,,,,,-0.04845082759857178,0.03334146738052368,0.023713231086730957,0.2966807782649994,0.10520816594362259,0.2994089722633362
1764808636.651125,0.2633124982565641,-0.2717997560948133,-0.19395722247958183,0.0966658741235733,0.24749025702476501,-0.18247570097446442,,,,,,
1764808636.653621,,,,,,,-0.050687432289123535,0.04779183864593506,0.02684536576271057,0.3509293794631958,0.13127651810646057,0.2812797725200653
1764808636.661177,0.17040742006599902,-0.33683658415079115,-0.23745631859675048,0.10400927066802979,0.265316367149353,-0.1748473346233368,,,,,,
1764808636.663651,,,,,,,-0.05634826421737671,0.058478593826293945,0.02820068597793579,0.41025546193122864,0.15290085971355438,0.25536468625068665
1764808636.671229,0.1468964883580804,-0.3344184170931577,-0.3042518268883228,0.10924714803695679,0.2883540093898773,-0.1751689314842224,,,,,,
1764808636.673681,,,,,,,-0.055955350399017334,0.0696287751197815,0.033572643995285034,0.4311940371990204,0.17354461550712585,0.2342415452003479
1764808636.681282,0.2623421919196844,-0.308278013664484,-0.4284808486253023,0.12521439790725708,0.33009693026542664,-0.16789263486862183,,,,,,
1764808636.683711,,,,,,,-0.05547332763671875,0.07579344511032104,0.0500163733959198,0.4139804542064667,0.19073586165905,0.2240353226661682
1764808636.691334,0.4284399320930242,-0.25670623185932634,-0.5926578498691321,0.15975147485733032,0.37914082407951355,-0.1466601938009262,,,,,,
1764808636.693741,,,,,,,-0.05930745601654053,0.046855032444000244,0.06648296117782593,0.33503079414367676,0.20509988069534302,0.20548054575920105
1764808636.701387,0.5738707318127155,-0.22808044135570524,-0.6744324622362852,0.20446008443832397,0.40252578258514404,-0.12283501774072647,,,,,,
1764808636.703772,,,,,,,-0.06516242027282715,0.009579479694366455,0.08200517296791077,0.24389657378196716,0.22964783012866974,0.19956286251544952
1764808636.711439,0.6412444783836603,-0.25056524488627907,-0.6035860711187124,0.2418363094329834,0.3835048973560333,-0.1056455746293068,,,,,,
1764808636.713802,,,,,,,-0.06711733341217041,0.007739603519439697,0.09188732504844666,0.20865389704704285,0.2406192570924759,0.19901397824287415
1764808636.721491,0.7191258827045559,-0.31333529705405233,-0.5712585034877061,0.2705744802951813,0.3433510661125183,-0.09872721880674362,,,,,,
1764808636.723832,,,,,,,-0.0711820125579834,0.0540584921836853,0.09027361869812012,0.2615424394607544,0.2548149824142456,0.1955554038286209
1764808636.731544,0.7746127921268343,-0.37911797504127026,-0.6519008238893002,0.2984490692615509,0.3217085301876068,-0.09316127002239227,,,,,,
1764808636.733862,,,,,,,-0.08475315570831299,0.0970427393913269,0.08486101031303406,0.38443294167518616,0.28616011142730713,0.2037142664194107
1764808636.741596,0.8471811847314238,-0.45811084773540495,-0.7840035746760666,0.31631383299827576,0.3366645872592926,-0.084327831864357,,,,,,
1764808636.743892,,,,,,,-0.10494118928909302,0.10664248466491699,0.0855930745601654,0.5311710238456726,0.33531248569488525,0.21968737244606018
1764808636.751648,0.8579507082879543,-0.5763748235881329,-0.8655296191096306,0.32853174209594727,0.3778926134109497,-0.06538905203342438,,,,,,
1764808636.753922,,,,,,,-0.11884146928787231,0.104683518409729,0.08976477384567261,0.6643580794334412,0.38340383768081665,0.2331179529428482
1764808636.761701,0.8465104458630085,-0.6450146445721388,-1.0157729336775838,0.3512658178806305,0.43898794054985046,-0.05107375606894493,,,,,,
1764808636.763952,,,,,,,-0.12811648845672607,0.11410176753997803,0.10360133647918701,0.7735214233398438,0.42650070786476135,0.23046471178531647
1764808636.771753,0.7875625823318958,-0.667099635130167,-1.186042406577617,0.38788461685180664,0.5034051537513733,-0.03294780105352402,,,,,,
1764808636.773982,,,,,,,-0.13448190689086914,0.11773759126663208,0.12554296851158142,0.8545864224433899,0.482002317905426,0.22537009418010712
1764808636.781805,0.7341328977003693,-0.6444178477227688,-1.2657130324028432,0.42897534370422363,0.5666267275810242,-0.01697016879916191,,,,,,
1764808636.784012,,,,,,,-0.13991796970367432,0.1193884015083313,0.15268173813819885,0.9042421579360962,0.5340961217880249,0.22175265848636627
1764808636.791858,0.7350105573177337,-0.6060328797489404,-1.4016466665893792,0.47485339641571045,0.6465460658073425,-0.010965846478939056,,,,,,
1764808636.794042,,,,,,,-0.14197301864624023,0.1225242018699646,0.17203041911125183,0.9349034428596497,0.583683967590332,0.21767881512641907
1764808636.80191,0.8332450138375163,-0.5307996518492698,-1.593573698415607,0.5308653116226196,0.7439218759536743,-0.011612994596362114,,,,,,
1764808636.804072,,,,,,,-0.1416698694229126,0.11948215961456299,0.18519243597984314,0.9461050033569336,0.6370646357536316,0.21244530379772186
1764808636.811962,1.0720146069899201,-0.47167058653235433,-1.6751859598278998,0.591130793094635,0.8252886533737183,-0.008358612656593323,,,,,,
1764808636.814102,,,,,,,-0.14181745052337646,0.11942678689956665,0.1961117684841156,0.9329580664634705,0.6873634457588196,0.191268652677536
1764808636.822015,1.3397469675153493,-0.446696888795495,-1.6799556584477424,0.6578911542892456,0.8712121844291687,0.007616092916578054,,,,,,
1764808636.824133,,,,,,,-0.14958953857421875,0.12170445919036865,0.21247363090515137,0.8857500553131104,0.7592315077781677,0.15315347909927368
1764808636.832067,1.5963319110825658,-0.41105099039673804,-1.6928168935865162,0.734146237373352,0.8741786479949951,0.04716230183839798,,,,,,
1764808636.834163,,,,,,,-0.15677404403686523,0.13832080364227295,0.2332407534122467,0.7988678812980652,0.8249708414077759,0.09626677632331848
1764808636.842119,1.8099086107894777,-0.36401860558688637,-1.751270251598954,0.823056697845459,0.852606475353241,0.1159839779138565,,,,,,
1764808636.844193,,,,,,,-0.15403974056243896,0.17285627126693726,0.24236342310905457,0.7317245006561279,0.8840048909187317,0.0475398451089859
1764808636.852172,1.9973577665492892,-0.3068167089402675,-1.7156169005461037,0.9010420441627502,0.8413304686546326,0.20052456855773926,,,,,,
1764808636.854223,,,,,,,-0.14853137731552124,0.21006083488464355,0.23919257521629333,0.7433832287788391,0.9423683285713196,0.0023968678433448076
1764808636.862224,2.0980857934504744,-0.34432255599200723,-1.6439134542077778,0.9652849435806274,0.8678779006004333,0.27335324883461,,,,,,
1764808636.864253,,,,,,,-0.1518104076385498,0.250932514667511,0.22884944081306458,0.8178868293762207,1.0206092596054077,-0.047962043434381485
1764808636.872276,2.1364421198517083,-0.3876408887147903,-1.6436266000904143,1.0115439891815186,0.9219366312026978,0.3325444161891937,,,,,,
1764808636.874283,,,,,,,-0.16197186708450317,0.2947764992713928,0.22007998824119568,0.9288418292999268,1.1121325492858887,-0.11181612312793732
1764808636.882329,2.194330245196819,-0.35155192272365093,-1.6892923727221787,1.0503989458084106,0.9928515553474426,0.39715057611465454,,,,,,
1764808636.884313,,,,,,,-0.16279077529907227,0.32515525817871094,0.21973609924316406,1.0467888116836548,1.2017329931259155,-0.17348520457744598
1764808636.892381,2.3041858736664054,-0.24770401023626326,-1.8018259882293641,1.0947470664978027,1.0612170696258545,0.48226848244667053,,,,,,
1764808636.894343,,,,,,,-0.1534019112586975,0.3416551947593689,0.22779273986816406,1.1193598508834839,1.2748991250991821,-0.2609780430793762
1764808636.902433,2.3990344871401788,-0.12203005038797855,-1.8067273504048584,1.1386258602142334,1.09083092212677,0.5833175778388977,,,,,,
1764808636.904373,,,,,,,-0.1375274658203125,0.3548278212547302,0.2337871789932251,1.1280096769332886,1.3191536664962769,-0.3760516345500946
1764808636.912486,2.4830513254761692,-0.0016395839005708694,-1.8418268669672309,1.1754753589630127,1.0973639488220215,0.6715462803840637,,,,,,
1764808636.914403,,,,,,,-0.1209912896156311,0.3527982831001282,0.2403515875339508,1.118474006652832,1.3315916061401367,-0.4857112765312195
1764808636.922538,2.668289819449186,-0.037003742748498915,-2.0236834634169933,1.2267247438430786,1.1087939739227295,0.7430324554443359,,,,,,
1764808636.924433,,,,,,,-0.11107879877090454,0.3538023829460144,0.26395514607429504,1.0576097965240479,1.3568999767303467,-0.609337329864502
1764808636.93259,3.0391444085359574,-0.02589958041012287,-2.1515448503069576,1.2960892915725708,1.1180015802383423,0.8230332136154175,,,,,,
1764808636.934463,,,,,,,-0.11580425500869751,0.36852002143859863,0.2949778735637665,0.917646586894989,1.4196895360946655,-0.7612770795822144
1764808636.942643,3.517220770457387,0.2756669529169798,-2.1058178490072486,1.3877744674682617,1.0942316055297852,0.9528505802154541,,,,,,
1764808636.944494,,,,,,,-0.11814802885055542,0.39104634523391724,0.3260692059993744,0.7563912868499756,1.507225751876831,-0.8874868154525757
1764808636.952695,3.928980201384425,0.6720201403975486,-1.955329035245627,1.4719605445861816,1.019699215888977,1.1364624500274658,,,,,,
1764808636.954524,,,,,,,-0.09909254312515259,0.41990649700164795,0.32505178451538086,0.6311724185943604,1.5735036134719849,-1.0337183475494385
1764808636.962747,4.105113013359904,0.8331155422389507,-1.8914707494497298,1.5357168912887573,0.896338939666748,1.327280044555664,,,,,,
1764808636.964554,,,,,,,-0.06994831562042236,0.4679603576660156,0.3046131730079651,0.5636228322982788,1.598743200302124,-1.2121082544326782
1764808636.9728,4.140988628861308,0.733902303814888,-1.8395492774240672,1.5771374702453613,0.7745740413665771,1.500030517578125,,,,,,
1764808636.974584,,,,,,,-0.04133325815200806,0.5293453335762024,0.28740742802619934,0.5832844376564026,1.6256933212280273,-1.3749243021011353
1764808636.982852,4.1996319564878934,0.6533259613215923,-1.7788263670444489,1.6006838083267212,0.7189760208129883,1.6612484455108643,,,,,,
1764808636.984614,,,,,,,-0.023953914642333984,0.5794089436531067,0.2807236909866333,0.6765918135643005,1.672656536102295,-1.522845983505249
1764808636.992905,4.207772592845559,0.8152730115562676,-1.847036564439535,1.631095051765442,0.7534156441688538,1.8132365942001343,,,,,,
1764808636.994644,,,,,,,-0.027379274368286133,0.6091452836990356,0.307696670293808,0.8130612373352051,1.7718780040740967,-1.6771910190582275
1764808637.002957,4.177304973867535,1.132718666538596,-2.040163765835762,1.6893692016601562,0.8321471810340881,1.9803680181503296,,,,,,
1764808637.004674,,,,,,,-0.030336737632751465,0.627814769744873,0.3393155336380005,0.9167221188545227,1.9165475368499756,-1.8356767892837524
1764808637.013009,4.098884932625293,1.6621026063710451,-2.067140620088577,1.7657405138015747,0.8776625990867615,2.1665780544281006,,,,,,
1764808637.014704,,,,,,,-0.00039333105087280273,0.6428896188735962,0.3562871515750885,0.9404652714729309,2.039536476135254,-2.0418105125427246
1764808637.023062,4.053020422551036,2.2857927233636377,-2.0093141618028283,1.8682225942611694,0.876717209815979,2.356276512145996,,,,,,
1764808637.024734,,,,,,,0.06151998043060303,0.6566306352615356,0.40504032373428345,0.907336950302124,2.1495959758758545,-2.2651758193969727
1764808637.033114,4.193288724941015,2.829257210996747,-1.998166306453198,2.016798973083496,0.836259663105011,2.568169593811035,,,,,,
1764808637.034764,,,,,,,0.1365223526954651,0.6812329292297363,0.4571426510810852,0.8229458928108215,2.2606146335601807,-2.5226755142211914
1764808637.043166,4.412732855376601,3.3995676199793814,-1.8812030379354954,2.1816413402557373,0.7610184550285339,2.839298725128174,,,,,,
1764808637.044794,,,,,,,0.19805201888084412,0.7084108591079712,0.5071128010749817,0.6704033017158508,2.3920090198516846,-2.7946887016296387
1764808637.053219,4.4902655923902985,3.8604999548763033,-1.7332985415786504,2.3182625770568848,0.6814525127410889,3.1503000259399414,,,,,,
1764808637.054824,,,,,,,0.2571534514427185,0.7075844407081604,0.5007592439651489,0.5760483145713806,2.512122631072998,-3.0259029865264893
1764808637.063271,4.203732377544045,3.9005303519695995,-1.7132710680723189,2.402876853942871,0.6378962397575378,3.4055933952331543,,,,,,
1764808637.064855,,,,,,,0.3176446855068207,0.66761714220047,0.44783657789230347,0.5715535879135132,2.5980734825134277,-3.254455327987671
1764808637.073323,3.7121687575399873,3.5887837854117155,-1.68903357565552,2.4368157386779785,0.6344855427742004,3.54860258102417,,,,,,
1764808637.074885,,,,,,,0.36115729808807373,0.6519759297370911,0.42750614881515503,0.6301904916763306,2.709160327911377,-3.4446640014648438
1764808637.083376,3.4545109240442513,3.411528106886148,-1.57613521848917,2.4720985889434814,0.6423848271369934,3.6402416229248047,,,,,,
1764808637.084916,,,,,,,0.3923213481903076,0.6714549660682678,0.4345692992210388,0.7586944103240967,2.828599691390991,-3.5783843994140625
1764808637.093428,3.4356852275431153,3.702452250167727,-1.7175243416026234,2.5337395668029785,0.6781055927276611,3.7544400691986084,,,,,,
1764808637.094946,,,,,,,0.4177684187889099,0.6697543859481812,0.4657413363456726,0.8724539875984192,2.956355094909668,-3.7105350494384766
1764808637.10348,3.3932185432136057,4.3012715452760455,-1.9259224696278572,2.611811399459839,0.7237604856491089,3.926091432571411,,,,,,
1764808637.104976,,,,,,,0.45321038365364075,0.6350653767585754,0.4952777028083801,0.944056510925293,3.0651395320892334,-3.8000547885894775
1764808637.113533,3.1315602419048547,4.590365258260071,-1.9484213016837835,2.6683692932128906,0.7578223943710327,4.102960109710693,,,,,,
1764808637.115006,,,,,,,0.5116403102874756,0.5489487648010254,0.46921294927597046,1.0190343856811523,3.084535598754883,-3.857876777648926
1764808637.123585,2.603731130298972,4.277220807603001,-1.7714169675707816,2.6889188289642334,0.7765737175941467,4.208300590515137,,,,,,
1764808637.125036,,,,,,,0.5588697195053101,0.44942009449005127,0.4386028051376343,1.030537486076355,3.0804409980773926,-3.9258127212524414
1764808637.133638,2.047663181680441,3.795391522888839,-1.5685428636640308,2.7014214992523193,0.8025895357131958,4.2267279624938965,,,,,,
1764808637.135066,,,,,,,0.5714603662490845,0.405922532081604,0.4386095404624939,1.0257067680358887,3.1226565837860107,-3.955787181854248
1764808637.14369,1.788210281461477,3.6752936096072193,-1.511029709111154,2.7299163341522217,0.8385035991668701,4.215242862701416,,,,,,
1764808637.145096,,,,,,,0.5700918436050415,0.37264955043792725,0.4386380612850189,1.0126147270202637,3.1670024394989014,-3.9824130535125732
1764808637.153742,1.712077474373579,3.9235453168541192,-1.4844748796626925,2.764235019683838,0.8604167699813843,4.22797966003418,,,,,,
1764808637.155126,,,,,,,0.5772210359573364,0.32592183351516724,0.43700140714645386,0.9548933506011963,3.218291759490967,-4.009532451629639
1764808637.163795,1.6360440360069275,4.247339171819388,-1.3534890771418808,2.77229642868042,0.8477970957756042,4.272767066955566,,,,,,
1764808637.165156,,,,,,,0.6068969964981079,0.2848452925682068,0.4210505485534668,0.9210827946662903,3.241351842880249,-3.980088233947754
1764808637.173847,1.4245125783920287,4.380078247748315,-1.322414139920473,2.753647565841675,0.8429884314537048,4.3049397468566895,,,,,,
1764808637.175186,,,,,,,0.6484510898590088,0.2571258544921875,0.38787221908569336,0.9366271495819092,3.200446128845215,-3.954183340072632
1764808637.183899,1.155999588882923,4.272617113199829,-1.3916925510689615,2.7317793369293213,0.8442561030387878,4.290298938751221,,,,,,
1764808637.185217,,,,,,,0.6684079170227051,0.24172157049179077,0.3705770671367645,0.9507342576980591,3.1808383464813232,-3.916274309158325
1764808637.193952,0.9634376201540231,4.144903464217483,-1.2801216431140898,2.7050552368164062,0.8252042531967163,4.242774486541748,,,,,,
1764808637.195247,,,,,,,0.66704261302948,0.21156734228134155,0.3636242151260376,0.9701367020606995,3.1665477752685547,-3.86710262298584
1764808637.204004,0.914084098920226,4.07718221938312,-1.164772677925229,2.701688051223755,0.7822850346565247,4.189664363861084,,,,,,
1764808637.205277,,,,,,,0.654146671295166,0.1826586127281189,0.3837113082408905,0.9496748447418213,3.1724021434783936,-3.838716745376587
1764808637.214056,0.8851379904210567,4.226050592336058,-1.2230553555458783,2.720536231994629,0.741496741771698,4.166937828063965,,,,,,
1764808637.215307,,,,,,,0.6426365971565247,0.17417263984680176,0.40896427631378174,0.8918895721435547,3.2179112434387207,-3.794325113296509
1764808637.224109,0.7778571808755398,4.610739645507931,-1.3670154981911182,2.739387273788452,0.742550253868103,4.156350612640381,,,,,,
1764808637.225337,,,,,,,0.6547306776046753,0.15176904201507568,0.4126704931259155,0.8432931303977966,3.2362060546875,-3.7583260536193848
1764808637.234161,0.564917610028386,4.930623341292143,-1.5667942664310335,2.7425472736358643,0.7533273100852966,4.141916751861572,,,,,,
1764808637.235367,,,,,,,0.6777489185333252,0.13706183433532715,0.4233724772930145,0.7624675035476685,3.234107494354248,-3.725998878479004
1764808637.244214,0.427709279730916,5.009622059205174,-1.6818913026854394,2.738452672958374,0.7299594283103943,4.1263651847839355,,,,,,
1764808637.245397,,,,,,,0.7001417875289917,0.14834904670715332,0.41766682267189026,0.7177909016609192,3.204610586166382,-3.676670551300049
1764808637.254266,0.3128571581482887,4.875508772313594,-1.8116870186388492,2.744133949279785,0.6809372305870056,4.092164993286133,,,,,,
1764808637.255427,,,,,,,0.7009276151657104,0.12218058109283447,0.4237271249294281,0.6732689738273621,3.175550699234009,-3.6333086490631104
1764808637.264318,0.1988853265315294,4.677533254103362,-1.8088015263304114,2.747581958770752,0.6161110997200012,4.040911674499512,,,,,,
1764808637.265457,,,,,,,0.6777074933052063,0.08143365383148193,0.44171491265296936,0.6113563179969788,3.1942877769470215,-3.5812602043151855
1764808637.274371,0.09353110113441944,4.562022668612003,-1.703705659608543,2.7432639598846436,0.5512910485267639,3.9884049892425537,,,,,,
1764808637.275487,,,,,,,0.6563774347305298,0.06278383731842041,0.44417062401771545,0.6064132452011108,3.206206798553467,-3.4991157054901123
1764808637.284423,-0.03596504735052585,4.487600172573328,-1.7083651758521794,2.740450859069824,0.5327889919281006,3.9352176189422607,,,,,,
1764808637.285517,,,,,,,0.6434507966041565,0.056878864765167236,0.42788875102996826,0.6535579562187195,3.2368252277374268,-3.442241907119751
1764808637.294475,-0.2616740833997726,4.522990050384402,-1.7561102389760315,2.7350411415100098,0.5343958139419556,3.8785719871520996,,,,,,
1764808637.295548,,,,,,,0.6322870850563049,0.060897767543792725,0.4213433265686035,0.6634777188301086,3.2756969928741455,-3.3900997638702393
1764808637.304528,-0.49929859817028044,4.594625838313997,-1.778345743920654,2.739123582839966,0.5521010160446167,3.8155245780944824,,,,,,
1764808637.305578,,,,,,,0.6368665099143982,0.04572951793670654,0.42150628566741943,0.6804378032684326,3.271646738052368,-3.3117265701293945
1764808637.31458,-0.6939677683115005,4.529779856655002,-1.9437975874058901,2.761420488357544,0.5553711652755737,3.7512550354003906,,,,,,
1764808637.315608,,,,,,,0.6356565356254578,0.006487071514129639,0.4296625852584839,0.6106757521629333,3.2556655406951904,-3.28964900970459
1764808637.324633,-0.756058606043458,4.363564043059945,-2.0014917976140976,2.773736000061035,0.5358256697654724,3.6877825260162354,,,,,,
1764808637.325638,,,,,,,0.6176193952560425,-0.00165480375289917,0.4561173915863037,0.5022242069244385,3.2820963859558105,-3.231038808822632
1764808637.334685,-0.6619692865043878,4.238874418073892,-1.921118284216523,2.781761646270752,0.5284952521324158,3.62522292137146,,,,,,
1764808637.335668,,,,,,,0.606033980846405,0.007680654525756836,0.4522758722305298,0.5012327432632446,3.3211255073547363,-3.1371586322784424
1764808637.344737,-0.5242196889370679,4.186134177011251,-1.805963964816928,2.782053232192993,0.5373811721801758,3.5673437118530273,,,,,,
1764808637.345698,,,,,,,0.5938787460327148,0.00252610445022583,0.43948233127593994,0.49565860629081726,3.3652305603027344,-3.1232399940490723
1764808637.35479,-0.45368777059614657,4.282481504610181,-1.7820815694481134,2.77740216255188,0.5393046140670776,3.5190558433532715,,,,,,
1764808637.355728,,,,,,,0.5876955389976501,0.03429150581359863,0.4640394449234009,0.4725727438926697,3.4106204509735107,-3.0712203979492188
1764808637.364842,-0.4416425280153751,4.3954426978796715,-1.8435148200541733,2.778616189956665,0.5486610531806946,3.4914886951446533,,,,,,
1764808637.365758,,,,,,,0.60281902551651,0.05706512928009033,0.43627023696899414,0.555636465549469,3.414386510848999,-2.9695870876312256
1764808637.374894,-0.5138181219100952,4.246929129713774,-1.8222423149228095,2.771467685699463,0.5687825679779053,3.4651975631713867,,,,,,
1764808637.375788,,,,,,,0.6007705926895142,0.033474862575531006,0.3857033848762512,0.6201009750366211,3.3752970695495605,-2.936379909515381
1764808637.384947,-0.7852706720024347,3.7718414282143113,-1.6156804624140262,2.7371342182159424,0.5788900852203369,3.411696195602417,,,,,,
1764808637.385818,,,,,,,0.564984142780304,0.003736734390258789,0.3635615110397339,0.6610242128372192,3.3737130165100098,-2.8745946884155273
1764808637.394999,-1.0555278748303651,3.2505215523719784,-1.5096902772009373,2.7032172679901123,0.5955876708030701,3.3202052116394043,,,,,,
1764808637.395848,,,,,,,0.5278609395027161,-0.01506507396697998,0.35591834783554077,0.7107531428337097,3.3935492038726807,-2.806931495666504
1764808637.405052,-1.0787141046285629,3.1176907065063713,-1.5695803900182246,2.675377130508423,0.6246507167816162,3.2248518466949463,,,,,,
1764808637.405878,,,,,,,0.5050538182258606,-0.007996439933776855,0.361366331577301,0.7222235798835754,3.4138126373291016,-2.7979226112365723
1764808637.415104,-0.9162602739155292,3.435019457110762,-1.4839958639740942,2.651890277862549,0.628791332244873,3.154144048690796,,,,,,
1764808637.415909,,,,,,,0.5134375095367432,0.018746614456176758,0.37304559350013733,0.7138546109199524,3.431504964828491,-2.735055685043335
1764808637.425156,-0.6651695438504218,3.860392402848601,-1.3385551273822784,2.6219570636749268,0.619766116142273,3.1156461238861084,,,,,,
1764808637.425939,,,,,,,0.5553945899009705,0.004056811332702637,0.33481329679489136,0.732258141040802,3.3762857913970947,-2.649876117706299
1764808637.435209,-0.5765566098958254,4.013444198966026,-1.2453028431892395,2.5688841342926025,0.6088546514511108,3.074488639831543,,,,,,
1764808637.435968,,,,,,,0.5846835374832153,-0.0604836642742157,0.290454626083374,0.6789190173149109,3.279845952987671,-2.5986409187316895
1764808637.445261,-0.7321493226677179,3.771383163052797,-1.0877182259477673,2.5128443241119385,0.5635012984275818,3.0156545639038086,,,,,,
1764808637.445999,,,,,,,0.5797551274299622,-0.09487447142601013,0.2567635476589203,0.605910062789917,3.185026168823242,-2.515230417251587
1764808637.455313,-0.9016764527678489,3.3013276105016467,-0.9619907823465764,2.46694016456604,0.4766838848590851,2.93440580368042,,,,,,
1764808637.456029,,,,,,,0.5424314141273499,-0.10219654440879822,0.22617799043655396,0.5593857169151306,3.092709541320801,-2.449730634689331
1764808637.465366,-0.982108418354392,2.938585600721836,-0.8318108893811702,2.4112396240234375,0.3896123766899109,2.826205253601074,,,,,,
1764808637.466059,,,,,,,0.49404197931289673,-0.11174580454826355,0.21934053301811218,0.4957229793071747,3.0518362522125244,-2.372971534729004
1764808637.475418,-1.1122738444030285,2.9683909563988444,-0.667634034267813,2.323726177215576,0.3218195140361786,2.7045042514801025,,,,,,
1764808637.476089,,,,,,,0.4829642176628113,-0.1257615089416504,0.19054031372070312,0.43536055088043213,2.998204469680786,-2.292560577392578
1764808637.485471,-1.2020587447464466,3.2150206154018637,-0.33202304638922214,2.214311122894287,0.2736261487007141,2.589475631713867,,,,,,
1764808637.486119,,,,,,,0.5259788036346436,-0.12971171736717224,0.13449740409851074,0.3960382044315338,2.8708157539367676,-2.1774256229400635
1764808637.495523,-1.2916852396577596,3.3453719194114204,-0.14164748178869485,2.1062021255493164,0.2252601534128189,2.4793572425842285,,,,,,
1764808637.496149,,,,,,,0.5802501440048218,-0.1293240785598755,0.08686584234237671,0.38893261551856995,2.6567959785461426,-2.092226982116699
1764808637.505575,-1.3685846472039818,3.2233371928483248,-0.17208675145506858,2.0132241249084473,0.18781664967536926,2.3753509521484375,,,,,,
1764808637.506179,,,,,,,0.5828585028648376,-0.10990580916404724,0.08709537982940674,0.39081406593322754,2.459109306335449,-1.9878816604614258
1764808637.515628,-1.4034917099341748,2.9455519326031205,-0.43957916574478145,1.920447587966919,0.18215212225914001,2.2861995697021484,,,,,,
1764808637.516209,,,,,,,0.5274876952171326,-0.10312420129776001,0.06261688470840454,0.4086926579475403,2.306359052658081,-1.9114700555801392
1764808637.52568,-1.4088970761090516,2.6634967399537564,-0.42077421977072954,1.8077566623687744,0.18817034363746643,2.1903135776519775,,,,,,
1764808637.526239,,,,,,,0.4486803412437439,-0.1127767264842987,0.05881994962692261,0.3399346172809601,2.238227605819702,-1.8612086772918701
1764808637.535732,-1.3149705459162593,2.69295664319396,-0.19642536615878342,1.6953999996185303,0.19485537707805634,2.0951852798461914,,,,,,
1764808637.53627,,,,,,,0.42847323417663574,-0.12435060739517212,0.05410808324813843,0.3139355182647705,2.1572110652923584,-1.7425705194473267
1764808637.545785,-1.219842530979216,2.86860254843533,0.054255321800708765,1.5880542993545532,0.185354545712471,1.9950435161590576,,,,,,
1764808637.5463,,,,,,,0.4617445468902588,-0.15485307574272156,0.02684849500656128,0.3009485602378845,2.0117225646972656,-1.6459429264068604
1764808637.555837,-1.2421771123841405,3.029934681642055,0.3372857892230153,1.4727704524993896,0.13649019598960876,1.8915327787399292,,,,,,
1764808637.55633,,,,,,,0.4966498613357544,-0.14815303683280945,-0.00699162483215332,0.27694737911224365,1.8502635955810547,-1.5491244792938232
1764808637.56589,-1.3214914721176028,2.952297315210104,0.38045740695148705,1.3591814041137695,0.078185074031353,1.768550157546997,,,,,,
1764808637.56636,,,,,,,0.5101515650749207,-0.15527701377868652,-0.03252673149108887,0.3083573281764984,1.657780408859253,-1.4561439752578735
1764808637.575942,-1.4671838453829287,2.6363907063633203,0.34299276869297024,1.2364295721054077,0.05026044324040413,1.6240870952606201,,,,,,
1764808637.57639,,,,,,,0.47276753187179565,-0.1605161428451538,-0.03852635622024536,0.24043314158916473,1.5645647048950195,-1.4048371315002441
1764808637.585994,-1.4660422741323709,2.8047452855527397,0.5352098695069551,1.116698145866394,0.03217251971364021,1.4905979633331299,,,,,,
1764808637.586419,,,,,,,0.44829803705215454,-0.13250209391117096,-0.049971044063568115,0.15126779675483704,1.4812666177749634,-1.3193843364715576
1764808637.596047,-1.308644850026071,2.9592671542227267,0.6674573625266551,1.0100533962249756,0.00413809297606349,1.3798582553863525,,,,,,
1764808637.59645,,,,,,,0.4626331925392151,-0.17680948972702026,-0.07076287269592285,0.0771123468875885,1.3310630321502686,-1.2158840894699097
1764808637.606099,-1.3013777816325425,2.858051343804598,0.7123001283377408,0.9272942543029785,-0.051350731402635574,1.2673386335372925,,,,,,
1764808637.60648,,,,,,,0.46895354986190796,-0.20844697952270508,-0.04242813587188721,-0.07391401380300522,1.2199958562850952,-1.1410194635391235
1764808637.616152,-1.3653162930577993,2.951493013089895,0.7012883204579353,0.8807281851768494,-0.10939165204763412,1.1542198657989502,,,,,,
1764808637.61651,,,,,,,0.4553929567337036,-0.20242463052272797,-0.021945714950561523,-0.13815532624721527,1.1130694150924683,-1.0190962553024292
1764808637.626204,-1.403683725374937,2.933983075362444,0.5308277088999748,0.8442865610122681,-0.1225452646613121,1.0342854261398315,,,,,,
1764808637.62654,,,,,,,0.4267704486846924,-0.19891203939914703,-0.014808177947998047,-0.10233591496944427,1.0061315298080444,-0.9210478663444519
1764808637.636256,-1.4369859832569956,2.880843605849147,0.5031289701133966,0.8036230206489563,-0.07723857462406158,0.9241188764572144,,,,,,
1764808637.63657,,,,,,,0.385134220123291,-0.15085572004318237,-0.024459004402160645,-0.04251252859830856,0.9623321890830994,-0.8161502480506897
1764808637.646309,-1.4050912540853022,2.82324598788321,0.6038488137081265,0.7425047755241394,-0.012102974578738213,0.8277739882469177,,,,,,
1764808637.6466,,,,,,,0.3648641109466553,-0.101366326212883,-0.048655688762664795,0.0599801242351532,0.8797256946563721,-0.7169588804244995
1764808637.656361,-1.2848964563004672,2.4209838686197993,0.6216022048026323,0.6817848682403564,0.04278026521205902,0.7324150800704956,,,,,,
1764808637.656631,,,,,,,0.35533320903778076,-0.10374751687049866,-0.05590754747390747,0.1433008313179016,0.7752491235733032,-0.5971829295158386
1764808637.666413,-1.2420508556559682,2.0976368806391954,0.6452192272335291,0.6072075963020325,0.08290424197912216,0.6300309300422668,,,,,,
1764808637.666661,,,,,,,0.3337869644165039,-0.1259109228849411,-0.07716017961502075,0.19992531836032867,0.7117140889167786,-0.4982626736164093
1764808637.676466,-1.2353836528517306,1.9819874711990355,0.8205863155335188,0.516554057598114,0.09921775013208389,0.5123067498207092,,,,,,
1764808637.676691,,,,,,,0.30774950981140137,-0.14477063715457916,-0.0863221287727356,0.24457214772701263,0.6503521800041199,-0.4080539643764496
1764808637.686518,-1.2059823479309677,2.0310440553128717,0.7514137028470635,0.42800503969192505,0.10013414174318314,0.38790997862815857,,,,,,
1764808637.686721,,,,,,,0.31160521507263184,-0.13280054926872253,-0.0854942798614502,0.24498523771762848,0.5512405037879944,-0.31790444254875183
1764808637.696571,-1.1124430634900926,2.08009654777348,0.48753860227167606,0.36548885703086853,0.07359438389539719,0.27561619877815247,,,,,,
1764808637.696751,,,,,,,0.33444714546203613,-0.1323680281639099,-0.08254826068878174,0.21993553638458252,0.3993591070175171,-0.2114480435848236
1764808637.706623,-0.9759048875391483,1.9277526076644658,0.34523324109613895,0.304187148809433,0.04525541886687279,0.16037802398204803,,,,,,
1764808637.706781,,,,,,,0.3232533931732178,-0.1793566644191742,-0.05816173553466797,0.07941145449876785,0.30071908235549927,-0.13634151220321655
1764808637.716675,-0.85289064841941,1.974401546114683,0.4050304149329662,0.2389645278453827,0.02345963567495346,0.052919622510671616,,,,,,
1764808637.716811,,,,,,,0.29883790016174316,-0.1936652511358261,-0.03014528751373291,-0.0834786593914032,0.24574397504329681,-0.057577185332775116
1764808637.726728,-0.7030579604789614,2.2106664629697796,0.46175709528326986,0.18020960688591003,0.015024606138467789,-0.027640998363494873,,,,,,
1764808637.726841,,,,,,,0.29927730560302734,-0.17791494727134705,-0.03729236125946045,-0.17963577806949615,0.16253671050071716,0.04555172845721245
1764808637.73678,-0.7019573057606816,2.2266788556158543,0.4963929398566484,0.11534508317708969,-0.014904193580150604,-0.09128200262784958,,,,,,
1764808637.73687,,,,,,,0.31015443801879883,-0.17046257853507996,-0.07262283563613892,-0.22878308594226837,0.03733910620212555,0.14149929583072662
1764808637.746833,-0.8169701708629726,1.8129361419171093,0.6526482081905007,0.021179169416427612,-0.07727435976266861,-0.17240296304225922,,,,,,
1764808637.746901,,,,,,,0.30007171630859375,-0.1593187302350998,-0.0999498963356018,-0.23382560908794403,-0.07108031213283539,0.2016560435295105
1764808637.756885,-0.9809031342178582,1.6126964781671762,0.8767869261831045,-0.10665648430585861,-0.09479999542236328,-0.2710359990596771,,,,,,
1764808637.756931,,,,,,,0.2844797968864441,-0.10087905824184418,-0.1082335114479065,-0.12481816112995148,-0.13511601090431213,0.27585679292678833
1764808637.766937,-1.1106393750689922,1.8540952507793902,0.9263169730275869,-0.225815087556839,-0.04232054948806763,-0.3564821779727936,,,,,,
1764808637.766962,,,,,,,0.3007086515426636,-0.050919562578201294,-0.14231503009796143,0.057292256504297256,-0.24688515067100525,0.38050422072410583
1764808637.77699,-1.2373206122636795,1.9661533577293155,0.877130917315185,-0.31207090616226196,0.01585174910724163,-0.4407237768173218,,,,,,
1764808637.776992,,,,,,,0.32546156644821167,-0.08350682258605957,-0.15575337409973145,0.160099059343338,-0.3863368034362793,0.47819241881370544
1764808637.787022,,,,,,,0.3255583643913269,-0.143278107047081,-0.12226200103759766,0.11009763181209564,-0.4760024845600128,0.5574731826782227
1764808637.787042,-1.3969533942066132,1.8624813863307237,0.8976660480827092,-0.3822140693664551,0.05097271874547005,-0.548457682132721,,,,,,
1764808637.797052,,,,,,,0.3239762783050537,-0.15538838505744934,-0.08751845359802246,0.048729605972766876,-0.5641022324562073,0.6513205766677856
1764808637.797094,-1.4152476141795516,1.991449711549282,0.9092617933303118,-0.44213101267814636,0.05790353938937187,-0.6647602915763855,,,,,,
1764808637.807082,,,,,,,0.33506184816360474,-0.15999561548233032,-0.08678305149078369,0.039795082062482834,-0.6981769800186157,0.767379641532898
1764808637.807147,-1.2027712769299745,2.1934067006111144,0.7772825958579779,-0.4861546456813812,0.01173870824277401,-0.7649417519569397,,,,,,
1764808637.817112,,,,,,,0.3268164396286011,-0.17859598994255066,-0.09533059597015381,0.019347328692674637,-0.8010029792785645,0.8576768040657043
1764808637.817199,-1.0303209528595207,2.020979757416248,0.6264402924835681,-0.5340573787689209,-0.049181412905454636,-0.8598041534423828,,,,,,
1764808637.827142,,,,,,,0.29484647512435913,-0.17521853744983673,-0.08324176073074341,-0.01646956242620945,-0.8380741477012634,0.9460145831108093
1764808637.827252,-0.980918624047935,1.7662749285072088,0.7410626969635487,-0.6014553308486938,-0.07541754841804504,-0.9537932276725769,,,,,,
1764808637.837172,,,,,,,0.2912171483039856,-0.1527935266494751,-0.08014333248138428,0.01674405112862587,-0.8951600790023804,1.0527710914611816
1764808637.837304,-1.0212561873942614,1.810948767492175,0.9202826612994074,-0.6737926006317139,-0.057507362216711044,-1.0389677286148071,,,,,,
1764808637.847202,,,,,,,0.3180803656578064,-0.13443022966384888,-0.09966802597045898,0.07694952934980392,-0.9606546759605408,1.1406900882720947
1764808637.847356,-1.1140087053716181,2.0227397528260944,1.0305457015261053,-0.7495328783988953,-0.02258026786148548,-1.1182528734207153,,,,,,
1764808637.857232,,,,,,,0.35475432872772217,-0.11729680001735687,-0.11385983228683472,0.1430763453245163,-1.0168436765670776,1.240106463432312
1764808637.857409,-1.3467398951426148,2.305365438839793,1.1830471702843903,-0.8335906267166138,0.01800478808581829,-1.2083834409713745,,,,,,
1764808637.867262,,,,,,,0.3972180485725403,-0.11071395874023438,-0.11113327741622925,0.20321743190288544,-1.1044150590896606,1.3467135429382324
1764808637.86746,-1.5736530462846159,2.632244692599773,1.15675128403306,-0.9212853312492371,0.05801771953701973,-1.3198050260543823,,,,,,
1764808637.877292,,,,,,,0.4337940812110901,-0.12260012328624725,-0.09456014633178711,0.26435163617134094,-1.2411739826202393,1.4594954252243042
1764808637.877514,-1.6819740125328302,2.7838579803466796,0.869262375897169,-0.9894527196884155,0.09551680088043213,-1.437328815460205,,,,,,
1764808637.887322,,,,,,,0.42444300651550293,-0.15601426362991333,-0.061588406562805176,0.2833428382873535,-1.3552305698394775,1.5595428943634033
1764808637.887566,-1.6529373031407593,2.5579683270335196,0.44345425361245866,-1.0427699089050293,0.11512725800275803,-1.556823492050171,,,,,,
1764808637.897353,,,,,,,0.37570542097091675,-0.1730949580669403,-0.021845519542694092,0.2239847034215927,-1.3833562135696411,1.6499849557876587
1764808637.897618,-1.5747636378750205,2.347540446746349,0.26533377495110033,-1.1059074401855469,0.09941446036100388,-1.685613751411438,,,,,,
1764808637.907383,,,,,,,0.36123985052108765,-0.18168801069259644,0.018496394157409668,0.1657082736492157,-1.4347535371780396,1.7444796562194824
1764808637.907671,-1.473453719432652,2.440893853226304,0.17883388762772082,-1.1737892627716064,0.06279680132865906,-1.825168251991272,,,,,,
1764808637.917413,,,,,,,0.39740002155303955,-0.2032116949558258,0.030504941940307617,0.0669793114066124,-1.5121243000030518,1.835089921951294
1764808637.917723,-1.3783172289282082,2.683023862722516,0.05794365492463111,-1.242924690246582,0.02087186835706234,-1.9592597484588623,,,,,,
1764808637.927443,,,,,,,0.45228809118270874,-0.20769450068473816,0.03402507305145264,-0.0146742332726717,-1.600939393043518,1.9170366525650024
1764808637.927776,-1.2894839302212,3.049215720695257,0.09470277526229619,-1.3145831823349,-0.03214501217007637,-2.069887161254883,,,,,,
1764808637.937473,,,,,,,0.4964805245399475,-0.18911504745483398,0.04421013593673706,-0.08156298846006393,-1.6900553703308105,1.99485445022583
1764808637.937828,-1.286169691106677,3.4118805735856292,0.1701636744379997,-1.3982698917388916,-0.07480445504188538,-2.157111167907715,,,,,,
1764808637.947503,,,,,,,0.5271531343460083,-0.15912064909934998,0.059508681297302246,-0.1177670806646347,-1.7872341871261597,2.078582763671875
1764808637.94788,-1.3744488630622624,3.742551620844006,0.08849515279382467,-1.4721646308898926,-0.09632465988397598,-2.227979898452759,,,,,,
1764808637.957533,,,,,,,0.5391295552253723,-0.15569648146629333,0.07251584529876709,-0.13863055408000946,-1.8805116415023804,2.161055088043213
1764808637.957933,-1.5239870981007813,3.9111306564390658,-0.12979074751734732,-1.5253007411956787,-0.09516257792711258,-2.299765110015869,,,,,,
1764808637.967563,,,,,,,0.5348952412605286,-0.15513136982917786,0.08607959747314453,-0.18144114315509796,-1.9630906581878662,2.2054331302642822
1764808637.967985,-1.681770891176164,3.899451324561238,-0.32828298307806253,-1.5767474174499512,-0.095343679189682,-2.376558780670166,,,,,,
1764808637.977593,,,,,,,0.5215888023376465,-0.13067525625228882,0.11839449405670166,-0.20703493058681488,-2.0343141555786133,2.2471425533294678
1764808637.978038,-1.7632652252972125,3.7975685746669767,-0.4863157824784517,-1.6491304636001587,-0.1233644187450409,-2.459148406982422,,,,,,
1764808637.987623,,,,,,,0.5214741826057434,-0.0996691882610321,0.14787918329238892,-0.1629687249660492,-2.0862271785736084,2.3134093284606934
1764808637.98809,-1.7174831328094005,3.7669291062533854,-0.6393965124294162,-1.7217683792114258,-0.14442229270935059,-2.544020891189575,,,,,,
1764808637.997653,,,,,,,0.5338049530982971,-0.07439875602722168,0.14794814586639404,-0.05379296839237213,-2.135469675064087,2.376100540161133
1764808637.998142,-1.5654501583456992,3.957179290908575,-0.7705676083892583,-1.795350193977356,-0.1266920417547226,-2.605552911758423,,,,,,
1764808638.007684,,,,,,,0.5455926060676575,-0.06524312496185303,0.1510738730430603,0.023403827100992203,-2.186530113220215,2.43194580078125
1764808638.008194,-1.4252794711112975,4.1425703450948,-0.7183996142566204,-1.8694497346878052,-0.0867326408624649,-2.6493027210235596,,,,,,
1764808638.017714,,,,,,,0.5519731044769287,-0.08390381932258606,0.15554791688919067,0.044350653886795044,-2.22715425491333,2.5037426948547363
1764808638.018247,-1.3873726420432329,4.218109862464666,-0.5955110473431646,-1.9387048482894897,-0.06963279843330383,-2.690876007080078,,,,,,
1764808638.027744,,,,,,,0.5581732392311096,-0.11508533358573914,0.16495680809020996,0.05177837610244751,-2.2734317779541016,2.5973567962646484
1764808638.0283,-1.448463947343826,4.188292816349864,-0.5854302367031574,-2.000934362411499,-0.08181516081094742,-2.7483277320861816,,,,,,
1764808638.037774,,,,,,,0.5628253817558289,-0.12026387453079224,0.1708666980266571,0.06338496506214142,-2.3354125022888184,2.701453924179077
1764808638.038352,-1.5614233870476484,4.126937891677022,-0.7139632392443717,-2.049314260482788,-0.10462513566017151,-2.8255813121795654,,,,,,
1764808638.047804,,,,,,,0.553121030330658,-0.1372280716896057,0.18885698914527893,0.07408647239208221,-2.4466145038604736,2.7692513465881348
1764808638.048404,-1.6526187387108802,3.8737434673309323,-1.0853227091133595,-2.087074041366577,-0.14658315479755402,-2.9345057010650635,,,,,,
1764808638.057834,,,,,,,0.5147562623023987,-0.16162163019180298,0.21800807118415833,-0.02924524061381817,-2.457740545272827,2.8426311016082764
1764808638.059085,-1.6794512160569428,3.5103269192904234,-1.3126641686700284,-2.1441683769226074,-0.22675944864749908,-3.0823984146118164,,,,,,
1764808638.067864,,,,,,,0.5057512521743774,-0.1621571183204651,0.22801998257637024,-0.11585934460163116,-2.404703378677368,2.9631824493408203
1764808638.069138,-1.6089228048473596,3.5224113248378037,-1.1548140323601663,-2.224329710006714,-0.3060223162174225,-3.2167272567749023,,,,,,
1764808638.077894,,,,,,,0.5543427467346191,-0.16801100969314575,0.2409050464630127,-0.17753949761390686,-2.4539291858673096,3.065861940383911
1764808638.079191,-1.4233026180803774,3.8381642044275996,-0.9484859886072575,-2.296093702316284,-0.34404700994491577,-3.3302111625671387,,,,,,
1764808638.087923,,,,,,,0.6261255145072937,-0.1562541127204895,0.2587732672691345,-0.2745848596096039,-2.5312724113464355,3.1781864166259766
1764808638.089243,-1.302771866339445,4.401210175365209,-0.8565325120531022,-2.3518552780151367,-0.34298014640808105,-3.4186863899230957,,,,,,
1764808638.097953,,,,,,,0.681990921497345,-0.14976179599761963,0.2461598813533783,-0.3036210238933563,-2.668776750564575,3.3366456031799316
1764808638.099296,-1.3076795121252536,4.801445172715187,-0.9373323611039668,-2.3829848766326904,-0.3356212079524994,-3.4844815731048584,,,,,,
1764808638.107983,,,,,,,0.6769634485244751,-0.1653953194618225,0.24169552326202393,-0.3209370970726013,-2.7821240425109863,3.4734368324279785
1764808638.109348,-1.4107903425097466,4.639399338281154,-1.1613678379178047,-2.410722255706787,-0.3116562068462372,-3.577164888381958,,,,,,
1764808638.118013,,,,,,,0.619658350944519,-0.14286267757415771,0.2640211582183838,-0.38652703166007996,-2.768012046813965,3.5767533779144287
1764808638.1194,-1.5700339790046214,4.205983955863118,-1.3715969807624817,-2.449239492416382,-0.27623429894447327,-3.718630790710449,,,,,,
1764808638.128044,,,,,,,0.5816047191619873,-0.11286985874176025,0.29388946294784546,-0.4256642460823059,-2.781484365463257,3.7046611309051514
1764808638.129453,-1.5756196701824665,3.91315544026494,-1.5569862813830375,-2.505084276199341,-0.24050888419151306,-3.882730007171631,,,,,,
1764808638.138074,,,,,,,0.5824931263923645,-0.10805505514144897,0.3068494498729706,-0.4496806263923645,-2.76387619972229,3.8701343536376953
1764808638.139505,-1.3662889374822378,3.849221020492911,-1.622603539675474,-2.5720412731170654,-0.1778108924627304,-4.040062427520752,,,,,,
1764808638.148104,,,,,,,0.6136285066604614,-0.10432165861129761,0.3225111961364746,-0.4372764825820923,-2.720182180404663,4.011518955230713
1764808638.149558,-1.0816694473028183,4.0518788513004775,-1.4921113658905027,-2.63108229637146,-0.09666476398706436,-4.203017711639404,,,,,,
1764808638.158134,,,,,,,0.6614307761192322,-0.07320588827133179,0.3364182114601135,-0.44326648116111755,-2.7290263175964355,4.13672399520874
1764808638.15961,-0.832861275216937,4.435697843639552,-1.2797995715528725,-2.665436029434204,-0.07144889235496521,-4.361303806304932,,,,,,
1764808638.168164,,,,,,,0.7151194214820862,-0.019339382648468018,0.3520590662956238,-0.3530774712562561,-2.779573678970337,4.332897663116455
1764808638.169662,-0.5793307507842779,4.866805241376161,-1.1123317120701075,-2.6754465103149414,-0.10323121398687363,-4.499522686004639,,,,,,
1764808638.178194,,,,,,,0.7409200072288513,0.01290041208267212,0.3321215510368347,-0.18984220921993256,-2.8331894874572754,4.509610652923584
1764808638.179715,-0.4381716370344162,5.009400525408983,-1.2140829445391892,-2.682978630065918,-0.13018901646137238,-4.624439716339111,,,,,,
1764808638.188224,,,,,,,0.7232359647750854,0.06106537580490112,0.3110619783401489,-0.0890686884522438,-2.7882943153381348,4.604794502258301
1764808638.189767,-0.41608138577938075,4.931885908573865,-1.1880115146934986,-2.7294921875,-0.15752343833446503,-4.748929500579834,,,,,,
1764808638.198254,,,,,,,0.7083569765090942,0.11980700492858887,0.3322919011116028,-0.061095647513866425,-2.698734998703003,4.6979475021362305
1764808638.19982,-0.3285901493310928,4.9673441754460335,-1.2124398535072802,-2.785958766937256,-0.18960146605968475,-4.8750739097595215,,,,,,
1764808638.208284,,,,,,,0.7281585931777954,0.14393270015716553,0.3787362575531006,-0.15127545595169067,-2.666940689086914,4.836999416351318
1764808638.209872,-0.05521218413412571,5.1596887020319695,-1.4707149421185255,-2.803720235824585,-0.21327324211597443,-4.990835666656494,,,,,,
1764808638.218314,,,,,,,0.7534970045089722,0.11324906349182129,0.41517966985702515,-0.37162408232688904,-2.683384418487549,4.990165710449219
1764808638.219924,0.3397971875220537,5.404644290342927,-1.88843065110147,-2.7773005962371826,-0.23340992629528046,-5.086001873016357,,,,,,
1764808638.228344,,,,,,,0.7531898617744446,0.03011685609817505,0.4627508521080017,-0.7301099300384521,-2.7542362213134766,5.10683012008667
1764808638.229977,0.727331693252921,5.380749035492539,-2.392310731843114,-2.7144687175750732,-0.25002405047416687,-5.198983669281006,,,,,,
1764808638.238374,,,,,,,0.7120101451873779,-0.0044432878494262695,0.5273733139038086,-1.0985411405563354,-2.788351058959961,5.230303764343262
1764808638.240029,1.158013851314783,4.898798170225322,-2.638481541162729,-2.651822566986084,-0.27293577790260315,-5.333951950073242,,,,,,
1764808638.248404,,,,,,,0.6566777229309082,0.05938535928726196,0.5339435338973999,-1.202538013458252,-2.69852876663208,5.393589019775391
1764808638.250082,1.65991123380661,4.3100116088315845,-2.4623347006618976,-2.6210100650787354,-0.2960736155509949,-5.45882511138916,,,,,,
1764808638.258435,,,,,,,0.6282835006713867,0.1976117491722107,0.49148547649383545,-1.0032769441604614,-2.6055121421813965,5.487517833709717
1764808638.260134,2.114853388378024,3.973242536959052,-1.935070237201452,-2.648470401763916,-0.3727254867553711,-5.530473709106445,,,,,,
1764808638.268465,,,,,,,0.6385788321495056,0.36606788635253906,0.4258207082748413,-0.5840399265289307,-2.5234975814819336,5.5667619705200195
1764808638.270186,2.2778759588897226,3.991920349422097,-1.2851280730992556,-2.7521862983703613,-0.4999805986881256,-5.544032573699951,,,,,,
1764808638.278495,,,,,,,0.6868292093276978,0.5001137256622314,0.32496917247772217,-0.159529909491539,-2.4285199642181396,5.5626678466796875
1764808638.280239,2.0248054531842468,4.309106768946349,-1.1898538546245545,-2.8761677742004395,-0.6058403849601746,-5.549140453338623,,,,,,
1764808638.288525,,,,,,,0.7268227338790894,0.5930959582328796,0.37584125995635986,-0.18357564508914948,-2.326986789703369,5.416766166687012
1764808638.290291,1.8028776892393827,5.037001649039984,-1.7290706947505472,-2.921504020690918,-0.6593065857887268,-5.5687479972839355,,,,,,
1764808638.298555,,,,,,,0.7624089121818542,0.6201993227005005,0.4976412057876587,-0.35604938864707947,-2.2428505420684814,5.453645706176758
1764808638.300344,2.156623907136917,6.099616851782798,-2.411782178901881,-2.8383660316467285,-0.6386238932609558,-5.515739440917969,,,,,,
1764808638.308585,,,,,,,0.7906137704849243,0.505730926990509,0.601230263710022,-0.8188884258270264,-2.27618670463562,5.422731399536133
1764808638.310396,2.8811650928884744,7.026918744194507,-3.016766572511196,-2.6430773735046387,-0.5993155837059021,-5.386981010437012,,,,,,
1764808638.318615,,,,,,,0.7483159899711609,0.4316755533218384,0.726144552230835,-1.5862188339233398,-2.251253128051758,5.203986167907715
1764808638.320449,3.551332883417606,7.391533562108874,-3.334115781381726,-2.3873322010040283,-0.6063793897628784,-5.233608722686768,,,,,,
1764808638.328645,,,,,,,0.6874724626541138,0.4413341283798218,0.7523107528686523,-2.0291152000427246,-2.14876127243042,5.0630035400390625
1764808638.330501,4.157510724595189,7.106485032862424,-3.0537445962965486,-2.169065237045288,-0.7263203263282776,-5.064364433288574,,,,,,
1764808638.338675,,,,,,,0.6579445004463196,0.5419324636459351,0.6819428205490112,-2.1630449295043945,-2.102191686630249,4.930350303649902
1764808638.340553,4.565131156021356,6.289114172244072,-2.5727707593679425,-2.0452778339385986,-0.9072099328041077,-4.872495651245117,,,,,,
1764808638.348705,,,,,,,0.6498677730560303,0.7229812741279602,0.5438432693481445,-1.8533527851104736,-2.0908985137939453,4.771099090576172
1764808638.350606,4.578134429979324,5.28738627666235,-2.0248381864100695,-2.056311845779419,-1.0801416635513306,-4.655732154846191,,,,,,
1764808638.358735,,,,,,,0.6417272090911865,0.826967179775238,0.3651618957519531,-1.2416625022888184,-2.0640368461608887,4.634893417358398
1764808638.360658,4.151638617691398,4.365701639610529,-1.339840491017699,-2.2074410915374756,-1.205312728881836,-4.440323352813721,,,,,,
1764808638.368766,,,,,,,0.6177845001220703,0.8458561897277832,0.2506740093231201,-0.5262718796730042,-1.9834023714065552,4.536065578460693
1764808638.370711,3.4131203445136546,3.7628871373862025,-0.7939934190969914,-2.4145543575286865,-1.2589466571807861,-4.267223358154297,,,,,,
1764808638.378796,,,,,,,0.5883550643920898,0.8222122192382812,0.22043420374393463,0.11305376887321472,-1.8813095092773438,4.43002462387085
1764808638.380763,2.576479550758004,3.6868385014504192,-0.7850111442834138,-2.5810587406158447,-1.236578345298767,-4.133698463439941,,,,,,
1764808638.388826,,,,,,,0.5647415518760681,0.752357542514801,0.24630416929721832,0.4866468906402588,-1.7589889764785767,4.328456401824951
1764808638.390815,1.864854545202851,4.1006829219579695,-1.0422604700434952,-2.6852357387542725,-1.1612548828125,-4.025378704071045,,,,,,
1764808638.398856,,,,,,,0.5624527335166931,0.645776093006134,0.3039361238479614,0.44441235065460205,-1.631075143814087,4.224733352661133
1764808638.400868,1.3944026868104933,4.872847444149851,-1.373380941569805,-2.7199816703796387,-1.0892232656478882,-3.923585891723633,,,,,,
1764808638.408886,,,,,,,0.5900346636772156,0.5176202058792114,0.368306040763855,0.11159247905015945,-1.5617328882217407,4.183328628540039
1764808638.41092,1.265919514760375,5.673802592018246,-1.6467320187598466,-2.692241907119751,-1.060168981552124,-3.8200929164886475,,,,,,
1764808638.418916,,,,,,,0.6292531490325928,0.36314791440963745,0.4117743968963623,-0.3512643873691559,-1.5860741138458252,4.102364540100098
1764808638.420973,1.3870797965764998,6.025538054615259,-1.884312694388628,-2.626107692718506,-1.0952142477035522,-3.716740131378174,,,,,,
1764808638.428946,,,,,,,0.6621987819671631,0.2511536478996277,0.4424349069595337,-0.808458149433136,-1.658040165901184,3.9786489009857178
1764808638.431025,1.5930501129329204,5.95953267378807,-1.907300771266222,-2.563943862915039,-1.1900837421417236,-3.646148204803467,,,,,,
1764808638.438976,,,,,,,0.684123694896698,0.22868329286575317,0.4612259864807129,-1.1737399101257324,-1.728427767753601,3.8786704540252686
1764808638.441078,1.8011685472339392,5.777639983111619,-1.7371768443167208,-2.534853219985962,-1.3465499877929688,-3.612544298171997,,,,,,
1764808638.449006,,,,,,,0.6949672698974609,0.2791628837585449,0.4669361114501953,-1.3750940561294556,-1.788782000541687,3.836634874343872
1764808638.45113,1.998143071708083,5.668896699798107,-1.5299650034666061,-2.5119800567626953,-1.559158444404602,-3.592621326446533,,,,,,
1764808638.459036,,,,,,,0.6880902647972107,0.3253093361854553,0.4512913227081299,-1.4005059003829956,-1.8168354034423828,3.805569887161255
1764808638.461182,2.1056278793931007,5.639178437882662,-1.4585668236851692,-2.486560583114624,-1.7901045083999634,-3.5585713386535645,,,,,,
1764808638.469066,,,,,,,0.6909791827201843,0.3048689365386963,0.4124479293823242,-1.4021921157836914,-1.7837778329849243,3.7821669578552246
1764808638.471235,2.0855250025629997,5.646767285576463,-1.3722504762351513,-2.4867103099823,-2.0336415767669678,-3.4994332790374756,,,,,,
1764808638.479096,,,,,,,0.6653398871421814,0.3342985510826111,0.4165250062942505,-1.4722214937210083,-1.7567007541656494,3.741931200027466
1764808638.481287,1.7930793488025665,5.571767866432666,-1.247845513409376,-2.510162591934204,-2.269037961959839,-3.430065870285034,,,,,,
1764808638.489126,,,,,,,0.671341061592102,0.28265148401260376,0.4370427131652832,-1.6374729871749878,-1.715935230255127,3.686821937561035
1764808638.49134,1.3281909697562455,5.50506865812242,-1.2276806772589683,-2.5494730472564697,-2.449131727218628,-3.375518560409546,,,,,,
1764808638.499157,,,,,,,0.6947613954544067,0.22905594110488892,0.4726681709289551,-1.8958262205123901,-1.7079782485961914,3.6531822681427
1764808638.501392,0.7801455840736627,5.643164877170324,-1.3854244305849075,-2.5653798580169678,-2.554410219192505,-3.3385884761810303,,,,,,
1764808638.509187,,,,,,,0.7192836999893188,0.19047248363494873,0.5250498056411743,-2.194993019104004,-1.783103346824646,3.6013667583465576
1764808638.511444,0.18650223029851912,5.735268575850129,-1.7950480185270308,-2.538050889968872,-2.5901474952697754,-3.319119691848755,,,,,,
1764808638.519217,,,,,,,0.7148561477661133,0.1499226689338684,0.5927855968475342,-2.4800667762756348,-1.816044807434082,3.526921272277832
1764808638.521497,-0.4169645983546972,5.893036879095435,-2.118566855943203,-2.515172004699707,-2.5604519844055176,-3.311159372329712,,,,,,
1764808638.529247,,,,,,,0.6978179812431335,0.142683744430542,0.6399725675582886,-2.74764347076416,-1.7757947444915771,3.4608144760131836
1764808638.531549,-0.9319579015240073,6.165159875795244,-2.296357371997833,-2.518615484237671,-2.5094993114471436,-3.3270394802093506,,,,,,
1764808638.539277,,,,,,,0.7025583386421204,0.1872042715549469,0.6698061227798462,-2.9477930068969727,-1.7677339315414429,3.4236505031585693
1764808638.541602,-1.2575278262510896,6.424612191492319,-2.539313895446062,-2.4982473850250244,-2.464944839477539,-3.353055953979492,,,,,,
1764808638.549307,,,,,,,0.7180781960487366,0.2363521158695221,0.6847182512283325,-3.0082077980041504,-1.8343747854232788,3.387539863586426
1764808638.551654,-1.2976751277223229,6.447149601992964,-2.8994319864630698,-2.4396402835845947,-2.4089810848236084,-3.3668413162231445,,,,,,
1764808638.559337,,,,,,,0.7071988582611084,0.25939422845840454,0.6799476146697998,-2.9877171516418457,-1.8398454189300537,3.355433225631714
1764808638.561707,-1.0915183488830924,6.308221023774147,-3.058395052450895,-2.405519723892212,-2.3491013050079346,-3.3418304920196533,,,,,,
1764808638.569367,,,,,,,0.6767756938934326,0.2786257863044739,0.6813817024230957,-2.937291145324707,-1.7948896884918213,3.3405749797821045
1764808638.571759,-0.8517337334692477,6.20839929806292,-2.9566251152813434,-2.3906209468841553,-2.30723237991333,-3.295950412750244,,,,,,
1764808638.579397,,,,,,,0.6513127684593201,0.27870795130729675,0.6917405128479004,-2.8515145778656006,-1.7972811460494995,3.3092565536499023
1764808638.581811,-0.7422133283033967,5.934809151419997,-3.089800244539976,-2.3272769451141357,-2.2355306148529053,-3.2611660957336426,,,,,,
1764808638.589427,,,,,,,0.6050446033477783,0.2583218216896057,0.6856659650802612,-2.7688286304473877,-1.7681851387023926,3.248765468597412
1764808638.591864,-0.6870806391462684,5.496166389742493,-3.2161843984842298,-2.226954460144043,-2.1002440452575684,-3.2343409061431885,,,,,,
1764808638.599457,,,,,,,0.5325016379356384,0.2522182762622833,0.6845598220825195,-2.717766761779785,-1.6344387531280518,3.196592330932617
1764808638.601916,-0.6531034046120942,5.079046893087029,-2.9950124213427305,-2.154005765914917,-1.942301869392395,-3.2175467014312744,,,,,,
1764808638.609487,,,,,,,0.4718828797340393,0.284862756729126,0.6811303496360779,-2.664703369140625,-1.4442490339279175,3.1891791820526123
1764808638.611969,-0.6401683735847473,4.974622642016411,-2.925371898883581,-2.072387218475342,-1.7832344770431519,-3.2028703689575195,,,,,,
1764808638.619518,,,,,,,0.45910000801086426,0.3366883397102356,0.6488423347473145,-2.5097098350524902,-1.2240991592407227,3.1587026119232178
1764808638.622021,-0.6512697594441473,5.277433037924766,-2.9767572182059285,-2.0107581615448,-1.6515758037567139,-3.168565273284912,,,,,,
1764808638.629548,,,,,,,0.5020325779914856,0.3837316036224365,0.6273314356803894,-2.354403495788574,-1.0031135082244873,3.137835741043091
1764808638.632073,-0.6713147686071693,6.194370188188553,-2.7841587168589235,-1.9918581247329712,-1.5263173580169678,-3.1375906467437744,,,,,,
1764808638.639578,,,,,,,0.606426477432251,0.4080737233161926,0.616564929485321,-2.2872297763824463,-1.0232722759246826,3.1178717613220215
1764808638.642126,-0.6231798293828964,6.983470647612213,-3.1505721086278555,-1.8942240476608276,-1.3648419380187988,-3.108286142349243,,,,,,
1764808638.649608,,,,,,,0.6752879023551941,0.3356441557407379,0.6110548377037048,-2.182879686355591,-1.1692529916763306,3.026644229888916
1764808638.652178,-0.4980081199683249,6.776022075396776,-3.6154677941977975,-1.7467124462127686,-1.1820673942565918,-3.0873382091522217,,,,,,
1764808638.659638,,,,,,,0.6192815899848938,0.22991320490837097,0.6585490107536316,-2.2666351795196533,-1.1627297401428223,2.9590585231781006
1764808638.662231,-0.3485482839282602,5.850823877266049,-3.6876433880925177,-1.593750238418579,-0.9504037499427795,-3.106748580932617,,,,,,
1764808638.669668,,,,,,,0.4893152117729187,0.2272818386554718,0.710588276386261,-2.4106218814849854,-1.035807490348816,3.0006842613220215
1764808638.672283,-0.0941911359457299,4.927392688807845,-3.5720530153632164,-1.4501365423202515,-0.7324264049530029,-3.1593222618103027,,,,,,
1764808638.679698,,,,,,,0.3684844970703125,0.2740149199962616,0.6822813153266907,-2.3727173805236816,-0.8179683685302734,3.078089475631714
1764808638.682336,0.23777038951460272,4.391146461990475,-3.4219814041003582,-1.3234158754348755,-0.584544837474823,-3.2259743213653564,,,,,,
1764808638.689728,,,,,,,0.3086931109428406,0.32931020855903625,0.5823923945426941,-2.1835789680480957,-0.5664634108543396,3.133248805999756
1764808638.692388,0.7804374796923249,4.289452512666583,-3.1215155254915357,-1.2633570432662964,-0.556828498840332,-3.28159236907959,,,,,,
1764808638.699758,,,,,,,0.33557283878326416,0.39611729979515076,0.447019100189209,-1.8264778852462769,-0.4405598044395447,3.182403564453125
1764808638.70244,1.4260241519987582,4.266957187741995,-2.669795547837019,-1.2671533823013306,-0.6330982446670532,-3.3093855381011963,,,,,,
1764808638.709788,,,,,,,0.4101952910423279,0.4595278799533844,0.3513583540916443,-1.399924874305725,-0.44106581807136536,3.1933176517486572
1764808638.712493,2.0514565826140343,4.078100503271818,-2.379137654276192,-1.3135610818862915,-0.6916108131408691,-3.317342519760132,,,,,,
1764808638.719818,,,,,,,0.470866322517395,0.5288423299789429,0.2770453095436096,-1.0081409215927124,-0.5112302303314209,3.204503059387207
1764808638.722545,2.654028069862723,3.9369706156164406,-2.2572172017425296,-1.3601012229919434,-0.718670129776001,-3.2681899070739746,,,,,,
1764808638.729848,,,,,,,0.46901023387908936,0.5646576881408691,0.2271818071603775,-0.6550488471984863,-0.5865687131881714,3.2094626426696777
1764808638.732598,3.116503542548418,3.6320495111644266,-2.1763345697790384,-1.4017423391342163,-0.7302326560020447,-3.155163288116455,,,,,,
1764808638.739879,,,,,,,0.39181625843048096,0.5765844583511353,0.19440670311450958,-0.41547462344169617,-0.6410313844680786,3.184569835662842
1764808638.74265,3.375893898925185,2.9121184495568273,-2.24032890304476,-1.4287813901901245,-0.7524926662445068,-3.0153493881225586,,,,,,
1764808638.749909,,,,,,,0.2756296992301941,0.606441080570221,0.18020713329315186,-0.34254395961761475,-0.6081836819648743,3.1155436038970947
1764808638.752702,3.5848669042289254,2.0788094305723903,-2.1131381088927386,-1.4711543321609497,-0.8112096786499023,-2.890770196914673,,,,,,
1764808638.759939,,,,,,,0.18390029668807983,0.6518008708953857,0.16340452432632446,-0.41410040855407715,-0.5664530396461487,3.0401012897491455
1764808638.762755,3.8375250297412276,1.6234136870145797,-1.9842378804743288,-1.4951837062835693,-0.8906083106994629,-2.7922580242156982,,,,,,
1764808638.769969,,,,,,,0.13072168827056885,0.6524918079376221,0.14900201559066772,-0.6304590702056885,-0.5987321138381958,2.9337141513824463
1764808638.772807,4.146068416343629,1.4365326865315438,-2.073315801592171,-1.4873546361923218,-0.9571464657783508,-2.7085397243499756,,,,,,
1764808638.779999,,,,,,,0.09738439321517944,0.5958815813064575,0.16493429243564606,-0.9824343919754028,-0.6851381659507751,2.83442759513855
1764808638.78286,4.379209063698351,1.3726087881535292,-2.504566699452698,-1.4171252250671387,-0.9505948424339294,-2.640472888946533,,,,,,
1764808638.790029,,,,,,,0.06648409366607666,0.4897104501724243,0.21623040735721588,-1.2907042503356934,-0.726779580116272,2.734503984451294
1764808638.792912,4.54878675494194,1.2168179224610327,-2.8568413834929465,-1.3493530750274658,-0.8770260214805603,-2.6026763916015625,,,,,,
1764808638.800059,,,,,,,0.03251194953918457,0.444389671087265,0.2174767404794693,-1.6498677730560303,-0.6898263692855835,2.672179698944092
1764808638.802965,4.762003389164805,1.0767875204801558,-2.6754244936347007,-1.3276723623275757,-0.8177105188369751,-2.6165499687194824,,,,,,
1764808638.810089,,,,,,,0.03614133596420288,0.5364730358123779,0.1631079912185669,-1.7594330310821533,-0.7756816148757935,2.6828935146331787
1764808638.813017,5.156242945492267,0.7510603593647479,-2.4616899730175734,-1.3013578653335571,-0.786288321018219,-2.634094476699829,,,,,,
1764808638.820119,,,,,,,0.041406214237213135,0.6757896542549133,0.05222697556018829,-1.504616141319275,-0.92171311378479,2.6746904850006104
1764808638.823069,5.697757468101382,0.041540801656246185,-2.4502175618886946,-1.3149482011795044,-0.7087365388870239,-2.6034748554229736,,,,,,
1764808638.830149,,,,,,,0.019038856029510498,0.8334931135177612,-0.05288228392601013,-1.0071719884872437,-0.9882804155349731,2.674990177154541
1764808638.833122,6.267362943685054,-0.5836147117137909,-2.4373808766692875,-1.417648434638977,-0.5564356446266174,-2.497659206390381,,,,,,
1764808638.840179,,,,,,,-0.021541476249694824,0.9640089273452759,-0.10561859607696533,-0.42468196153640747,-0.9727746844291687,2.6631832122802734
1764808638.843174,6.720809306740761,-0.8894839106708764,-2.3853999295413493,-1.5492390394210815,-0.36756908893585205,-2.3440515995025635,,,,,,
1764808638.850209,,,,,,,-0.071155846118927,1.0419232845306396,-0.09258681535720825,0.046103086322546005,-0.8978424072265625,2.6649718284606934
1764808638.853227,6.973031086662411,-0.7659265045851469,-2.5802088004142045,-1.5936964750289917,-0.1694869101047516,-2.1600241661071777,,,,,,
1764808638.86024,,,,,,,-0.10990196466445923,1.0261458158493042,-0.05299994349479675,0.4019607901573181,-0.8360035419464111,2.612877368927002
1764808638.863279,6.961513082826137,-0.3559089488893747,-2.8315017750531433,-1.5271738767623901,-0.017013706266880035,-1.9571999311447144,,,,,,
1764808638.87027,,,,,,,-0.15578699111938477,0.9390673637390137,0.0008155852556228638,0.4596041142940521,-0.7602936029434204,2.4609501361846924
1764808638.873331,6.708121674603223,0.033495442366600035,-2.8432828137397763,-1.3942939043045044,0.08947465568780899,-1.7740482091903687,,,,,,
1764808638.8803,,,,,,,-0.1824723482131958,0.8944063186645508,0.031014636158943176,0.28475719690322876,-0.6936794519424438,2.2945125102996826
1764808638.883384,6.35909313287735,0.1882762542337179,-2.714543621101975,-1.2517943382263184,0.09377355128526688,-1.6258902549743652,,,,,,
1764808638.89033,,,,,,,-0.18828022480010986,0.8752346634864807,0.028617769479751587,0.15377432107925415,-0.6753574013710022,2.1094210147857666
1764808638.893436,6.2173395603656765,-0.11875322067439556,-2.4813404299050568,-1.138031005859375,0.017333906143903732,-1.5207953453063965,,,,,,
1764808638.90036,,,,,,,-0.19837462902069092,0.8864507079124451,0.03395107388496399,0.025859499350190163,-0.6769347786903381,1.8803973197937012
1764808638.903489,6.338810223305225,-0.6127285779953002,-2.5078034894168377,-1.0540261268615723,-0.03262465074658394,-1.4240648746490479,,,,,,
1764808638.91039,,,,,,,-0.2169482707977295,0.9407680034637451,0.037266433238983154,-0.019816715270280838,-0.6744980216026306,1.667654037475586
1764808638.913541,6.57683221296072,-0.9043068012714386,-2.8257383892208336,-0.9841296076774597,0.00046059885062277317,-1.3023219108581543,,,,,,
1764808638.92042,,,,,,,-0.2514471411705017,0.9701884984970093,0.03805680572986603,0.08319328725337982,-0.6458514332771301,1.4728776216506958
1764808638.923594,6.785999864053726,-1.0191314503252507,-3.3189790025264023,-0.914622962474823,0.1428338885307312,-1.1452523469924927,,,,,,
1764808638.93045,,,,,,,-0.2890836000442505,1.0016101598739624,0.034216463565826416,0.19781941175460815,-0.5531414747238159,1.3114757537841797
1764808638.933646,6.9911121022760865,-0.8955056551784276,-3.7695296441406008,-0.8469845056533813,0.3500842750072479,-0.959256649017334,,,,,,
1764808638.94048,,,,,,,-0.3100651502609253,1.0586657524108887,0.022407948970794678,0.4060431718826294,-0.45557552576065063,1.1782463788986206
1764808638.943698,7.199547347441316,-0.6473556547403335,-4.043841090795397,-0.7612720131874084,0.5300310850143433,-0.7520776987075806,,,,,,
1764808638.95051,,,,,,,-0.31461894512176514,1.093795895576477,0.01859709620475769,0.6833613514900208,-0.3838243782520294,1.0299900770187378
1764808638.953751,7.365010296842455,-0.47233460339903827,-4.0222856770694255,-0.6616817712783813,0.6312445402145386,-0.5292952060699463,,,,,,
1764808638.96054,,,,,,,-0.30527371168136597,1.1110482215881348,0.022249549627304077,0.940445065498352,-0.3276638984680176,0.8624281883239746
1764808638.963803,7.42354431887567,-0.35558044758737084,-3.894052680388093,-0.5534575581550598,0.6401119232177734,-0.30562499165534973,,,,,,
1764808638.97057,,,,,,,-0.295706570148468,1.089911937713623,0.03929820656776428,1.147351861000061,-0.28032752871513367,0.6741536259651184
1764808638.973856,7.295030751687288,-0.31093291208744045,-3.766654965487122,-0.43615543842315674,0.581267774105072,-0.11060864478349686,,,,,,
1764808638.980601,,,,,,,-0.29280751943588257,1.025512933731079,0.08819779753684998,1.2588880062103271,-0.21013140678405762,0.47124338150024414
1764808638.983908,7.021758584952354,-0.26897593084573745,-3.675583532464504,-0.3112352788448334,0.4991942048072815,0.05077569931745529,,,,,,
1764808638.990631,,,,,,,-0.2812919616699219,0.9668349623680115,0.09913350641727448,1.2452629804611206,-0.12310729175806046,0.24195346236228943
1764808638.99396,6.775433461853861,-0.030113983234763143,-3.471993973764777,-0.19327907264232635,0.3809618651866913,0.20537087321281433,,,,,,
1764808639.000661,,,,,,,-0.25421440601348877,0.9412052631378174,0.08321376144886017,1.125576138496399,-0.08119446784257889,-0.00977763906121254
1764808639.004013,6.543828938025236,0.19892624306380746,-3.3226129751145836,-0.07386186718940735,0.26442059874534607,0.3888959586620331,,,,,,
1764808639.010691,,,,,,,-0.22688275575637817,0.9132279753684998,0.11010557413101196,1.0029715299606323,-0.07556694000959396,-0.26897111535072327
1764808639.014065,6.288820157733559,0.27492051846385,-3.385571243330836,0.057800281792879105,0.21436035633087158,0.5973436832427979,,,,,,
1764808639.020721,,,,,,,-0.21388357877731323,0.8716689944267273,0.11134184896945953,0.8418934345245361,-0.06374197453260422,-0.5283533930778503
1764808639.024118,5.935567276310921,0.292537423697114,-3.4214714087516067,0.19920508563518524,0.19100868701934814,0.8015210628509521,,,,,,
1764808639.030751,,,,,,,-0.21621328592300415,0.8166441321372986,0.11158449947834015,0.6817317605018616,-0.02794056572020054,-0.7953963279724121
1764808639.03417,5.514634943369031,0.25763503714203834,-3.2001591463565826,0.3446948528289795,0.14685852825641632,0.9813358783721924,,,,,,
1764808639.040781,,,,,,,-0.2170722484588623,0.7829819321632385,0.11031647026538849,0.49573051929473877,0.0251143965870142,-1.0337437391281128
1764808639.044223,5.094586407524347,0.2206143432587385,-2.959376459816098,0.47699564695358276,0.10652706772089005,1.1472076177597046,,,,,,
1764808639.050811,,,,,,,-0.2006063461303711,0.7801188826560974,0.10713747143745422,0.4054139256477356,0.06424502283334732,-1.2448008060455322
1764808639.054275,4.688416174906492,0.24232757789492607,-2.889867454782128,0.5922490954399109,0.09815241396427155,1.300399661064148,,,,,,
1764808639.060841,,,,,,,-0.1783023476600647,0.7715718746185303,0.11028903722763062,0.3925290107727051,0.12268409132957458,-1.4759738445281982
1764808639.064327,4.405640851289034,0.3697907592475414,-2.86170285204947,0.6773698925971985,0.1148054227232933,1.444672703742981,,,,,,
1764808639.070871,,,,,,,-0.14823132753372192,0.769000232219696,0.10316681861877441,0.35221153497695923,0.18462896347045898,-1.6840957403182983
1764808639.07438,4.232653351601958,0.6682996585696935,-2.842763758301735,0.7658266425132751,0.11535944789648056,1.5997921228408813,,,,,,
1764808639.080901,,,,,,,-0.10365152359008789,0.7389878034591675,0.11400587856769562,0.35404300689697266,0.17820754647254944,-1.8686749935150146
1764808639.084432,4.059871019098162,0.8555331257522105,-2.9447938077121973,0.8741322159767151,0.13294337689876556,1.747801423072815,,,,,,
1764808639.090931,,,,,,,-0.07385438680648804,0.6646442413330078,0.14098337292671204,0.3350749909877777,0.19083066284656525,-2.0519771575927734
1764808639.094484,3.8537224235653875,0.9240244781762361,-2.9475018976271152,0.9874874949455261,0.18616798520088196,1.8749278783798218,,,,,,
1764808639.100961,,,,,,,-0.060300230979919434,0.6136543154716492,0.15063275396823883,0.28390181064605713,0.24627874791622162,-2.2104647159576416
1764808639.104536,3.7109038521707056,0.9471277058660984,-2.6861130609095096,1.0875904560089111,0.2076844573020935,1.989808440208435,,,,,,
1764808639.110992,,,,,,,-0.04996335506439209,0.5900619626045227,0.14059342443943024,0.2950837016105652,0.3163302540779114,-2.3731422424316406
1764808639.114588,3.5673557974576946,0.899516644385457,-2.3279180469095704,1.157321572303772,0.1686713546514511,2.097836971282959,,,,,,
1764808639.121022,,,,,,,-0.032089412212371826,0.5909980535507202,0.1294858455657959,0.2886545658111572,0.4264530539512634,-2.500427722930908
1764808639.124641,3.391509985730052,1.1178665498435496,-2.0910890664309263,1.2131904363632202,0.1066027581691742,2.2180657386779785,,,,,,
1764808639.131052,,,,,,,0.015980541706085205,0.5680382251739502,0.1278584599494934,0.3364151120185852,0.4597817063331604,-2.6176857948303223
1764808639.134693,3.1729934915333984,1.444251298084855,-1.9971032072663306,1.285532832145691,0.039152611047029495,2.3290271759033203,,,,,,
1764808639.141083,,,,,,,0.06171077489852905,0.4935171902179718,0.11922073364257812,0.318648099899292,0.4088194668292999,-2.768941879272461
1764808639.144746,2.877801461674273,1.4416075055778026,-1.911215314361453,1.3619478940963745,-0.005350673105567694,2.400177478790283,,,,,,
1764808639.151112,,,,,,,0.08056110143661499,0.4436861276626587,0.1241951584815979,0.24294236302375793,0.37914252281188965,-2.857039213180542
1764808639.154799,2.5896342158854004,1.1968839724570512,-1.9328724348962305,1.438189148902893,0.0042410362511873245,2.442753553390503,,,,,,
1764808639.161142,,,,,,,0.07482916116714478,0.4071671664714813,0.13445740938186646,0.266398161649704,0.4048689305782318,-2.8986735343933105
1764808639.164851,2.363255317750573,0.8611538882434367,-1.911832569476962,1.4860613346099854,0.056359101086854935,2.4762792587280273,,,,,,
1764808639.171172,,,,,,,0.05034524202346802,0.39968574047088623,0.1240965873003006,0.34317103028297424,0.512256383895874,-2.9353280067443848
1764808639.174903,2.2440581527009607,0.7404705762892961,-1.7438263653337955,1.4916919469833374,0.12539030611515045,2.5110511779785156,,,,,,
1764808639.181202,,,,,,,0.05355095863342285,0.427609920501709,0.10432346165180206,0.49213093519210815,0.636306643486023,-2.951932907104492
1764808639.184955,2.1159917447581886,1.0729986495912074,-1.6663760459065435,1.5037753582000732,0.20025676488876343,2.5786266326904297,,,,,,
1764808639.191232,,,,,,,0.09888482093811035,0.4239344000816345,0.10308754444122314,0.6896888017654419,0.6951316595077515,-2.9917938709259033
1764808639.195009,1.9117402150183915,1.5144249045073985,-1.5626374390125273,1.5174198150634766,0.2713295817375183,2.663623094558716,,,,,,
1764808639.201262,,,,,,,0.1535218358039856,0.3995167016983032,0.11162202060222626,0.8395451903343201,0.6963393688201904,-3.046861171722412
1764808639.205061,1.5579431437164544,1.85243579313457,-1.5130460173696278,1.5411365032196045,0.36611974239349365,2.7340426445007324,,,,,,
1764808639.211293,,,,,,,0.20418041944503784,0.3725174069404602,0.10838866978883743,0.9460099935531616,0.6856933832168579,-3.085655450820923
1764808639.215113,1.2295245515599846,2.0383909109443423,-1.354551737937331,1.554317831993103,0.4318508505821228,2.7837629318237305,,,,,,
1764808639.221323,,,,,,,0.24219810962677002,0.3361302316188812,0.10491586476564407,1.0285565853118896,0.6560044884681702,-3.144625663757324
1764808639.225165,1.076412549687922,2.0029162774592635,-1.044116253978014,1.5280375480651855,0.4386608302593231,2.8118197917938232,,,,,,
1764808639.231354,,,,,,,0.2637462615966797,0.32425937056541443,0.10506772994995117,1.0733592510223389,0.6586239337921143,-3.199164390563965
1764808639.235218,1.1564679370470345,1.9478788653701542,-0.8593570679545403,1.4850542545318604,0.37573158740997314,2.837747097015381,,,,,,
1764808639.241383,,,,,,,0.28632789850234985,0.32298725843429565,0.10197168588638306,1.1283953189849854,0.6351692080497742,-3.2781155109405518
1764808639.24527,1.3523825772047042,2.066398277288675,-0.8501660457611083,1.4597283601760864,0.25135207176208496,2.880133628845215,,,,,,
1764808639.251413,,,,,,,0.3113398551940918,0.2986004948616028,0.14490321278572083,1.0822405815124512,0.6279699206352234,-3.3913400173187256
1764808639.255322,1.3260291155472397,2.589245508828759,-0.9949892349764704,1.4815888404846191,0.179062157869339,2.943697929382324,,,,,,
1764808639.261443,,,,,,,0.3539631962776184,0.24087856709957123,0.21070623397827148,0.9281113147735596,0.6092193722724915,-3.4558846950531006
1764808639.265375,1.0542473335005342,3.4770401512384415,-1.1968944938510655,1.5471388101577759,0.16367767751216888,3.01513409614563,,,,,,
1764808639.271473,,,,,,,0.40826594829559326,0.1538752317428589,0.24137377738952637,0.6685326099395752,0.5195614099502563,-3.5212557315826416
1764808639.275427,0.6902330387625842,3.944022872215509,-1.172247543850541,1.631718397140503,0.1294824182987213,3.0627975463867188,,,,,,
1764808639.281503,,,,,,,0.42341160774230957,0.10983451455831528,0.2519076466560364,0.3918223977088928,0.453832745552063,-3.578554391860962
1764808639.28548,0.3937397901117801,3.8192116666764018,-0.9845455823734403,1.7228493690490723,0.05633903294801712,3.074054718017578,,,,,,
1764808639.291533,,,,,,,0.4071968197822571,0.12146945297718048,0.23014962673187256,0.2710525393486023,0.43963488936424255,-3.5987844467163086
1764808639.295532,0.2788523049548268,3.318343627232313,-0.8442319795370101,1.810226321220398,-0.008230641484260559,3.0732293128967285,,,,,,
1764808639.301564,,,,,,,0.3601451516151428,0.15771423280239105,0.19377678632736206,0.3260715901851654,0.5052064657211304,-3.66351056098938
1764808639.305584,0.29852086375458164,2.6081243968218564,-0.5353776272892952,1.8308781385421753,-0.03817930072546005,3.074540853500366,,,,,,
1764808639.311594,,,,,,,0.3047633767127991,0.21015161275863647,0.17562878131866455,0.41973116993904114,0.6773664951324463,-3.698606491088867
