timestamp,phone_accel_x,phone_accel_y,phone_accel_z,phone_gyro_x,phone_gyro_y,phone_gyro_z,watch_accel_x,watch_accel_y,watch_accel_z,watch_gyro_x,watch_gyro_y,watch_gyro_z
1764808602.28592,3.7454128554940223,0.1931429834872484,-1.3956483029574156,0.6631134152412415,-0.09225457906723022,1.9825141429901123,,,,,,
1764808602.290567,,,,,,,-0.036518394947052,0.541403591632843,-0.039576828479766846,0.1737482249736786,-0.25820598006248474,-2.2216429710388184
1764808602.295972,3.552241814956069,0.011480009913444519,-1.6354337951540947,0.699172854423523,-0.10610941052436829,2.097153902053833,,,,,,
1764808602.300597,,,,,,,-0.044688284397125244,0.5128628015518188,0.013997435569763184,0.1311868280172348,-0.24738502502441406,-2.335848093032837
1764808602.306024,3.3123765355214476,-0.049804187610745426,-1.8473548366084693,0.7336717247962952,-0.07538914680480957,2.189697504043579,,,,,,
1764808602.310627,,,,,,,-0.06374698877334595,0.48511016368865967,0.04574429988861084,0.09690049290657043,-0.13178013265132904,-2.4400243759155273
1764808602.316077,3.105648678795993,0.30745266875624655,-1.8181079915970564,0.7538206577301025,-0.020536819472908974,2.2624857425689697,,,,,,
1764808602.320657,,,,,,,-0.0482252836227417,0.47042208909988403,0.05789531022310257,0.06411588937044144,-0.0003606020472943783,-2.5424609184265137
1764808602.326129,2.9932459961920976,1.0104682513982057,-1.7547370509266853,0.7833618521690369,0.009240866638720036,2.3531792163848877,,,,,,
1764808602.330687,,,,,,,0.01966756582260132,0.4565601348876953,0.045544371008872986,0.09359708428382874,-0.009116808883845806,-2.653797149658203
1764808602.336181,2.8975314135387538,1.5598931087404488,-1.5823732360959053,0.7987240552902222,-0.06257527321577072,2.464721202850342,,,,,,
1764808602.340718,,,,,,,0.10322606563568115,0.4517102837562561,0.031186208128929138,0.11466033011674881,-0.09340159595012665,-2.790147542953491
1764808602.346233,2.727092137029767,1.7781664418309926,-1.466963480630517,0.8036587834358215,-0.20549730956554413,2.567939281463623,,,,,,
1764808602.350748,,,,,,,0.16559410095214844,0.45372819900512695,0.04290248453617096,0.10252589732408524,-0.21854326128959656,-2.8840951919555664
1764808602.356286,2.584709618964791,1.647555610102415,-1.5984154393583536,0.8289816975593567,-0.3564857542514801,2.6512656211853027,,,,,,
1764808602.360778,,,,,,,0.19061464071273804,0.42417460680007935,0.08238662034273148,0.08279091864824295,-0.3549967110157013,-2.9609925746917725
1764808602.366338,2.3664520679652687,1.3753613017320632,-1.921872025193274,0.9097689390182495,-0.43705031275749207,2.7096900939941406,,,,,,
1764808602.370808,,,,,,,0.14726072549819946,0.3668365478515625,0.19260913133621216,0.016333866864442825,-0.3436836004257202,-3.022303819656372
1764808602.37639,2.060292946150899,1.3459329626739025,-2.277763146165013,1.046613097190857,-0.3544137477874756,2.756993532180786,,,,,,
1764808602.380838,,,,,,,0.07025283575057983,0.3131334185600281,0.2696194648742676,-0.015705520287156105,-0.144313246011734,-3.0642502307891846
1764808602.386443,1.6754592238113284,1.7069722601890562,-2.1761960380911827,1.1653848886489868,-0.20761431753635406,2.790942430496216,,,,,,
1764808602.390868,,,,,,,0.03933572769165039,0.2810772955417633,0.24475699663162231,-0.054150912910699844,0.12514379620552063,-3.1477482318878174
1764808602.396495,1.375377522214502,2.361084987974167,-1.4752765509456396,1.2140182256698608,-0.16393740475177765,2.82011079788208,,,,,,
1764808602.400898,,,,,,,0.1057177186012268,0.31096091866493225,0.17691384255886078,-0.1136632040143013,0.24668247997760773,-3.256742000579834
1764808602.406547,1.4151051369689405,2.8540637354731557,-0.821413998529315,1.2416445016860962,-0.3310925364494324,2.876573324203491,,,,,,
1764808602.410928,,,,,,,0.23141562938690186,0.33657100796699524,0.11163294315338135,-0.03868643566966057,0.2251335084438324,-3.3860414028167725
1764808602.4166,1.4723808295041323,3.1360639830648895,-0.45690381003320213,1.268540859222412,-0.6068007946014404,2.9501516819000244,,,,,,
1764808602.420958,,,,,,,0.34251105785369873,0.3347357213497162,0.10237173736095428,0.057903826236724854,0.22335238754749298,-3.4874560832977295
1764808602.426652,1.2048729253843427,3.528156590491533,-0.6018018180504441,1.3421789407730103,-0.7471082806587219,3.016000747680664,,,,,,
1764808602.430988,,,,,,,0.42641371488571167,0.3333866596221924,0.1327066868543625,0.13020411133766174,0.14878520369529724,-3.5655694007873535
1764808602.436704,0.7369174138523638,3.749450732707977,-1.0135516043663024,1.4725651741027832,-0.7063462138175964,3.0743751525878906,,,,,,
1764808602.441018,,,,,,,0.45413053035736084,0.28321075439453125,0.2016802430152893,0.13441422581672668,0.02019740268588066,-3.643967628479004
1764808602.446757,0.19354339924799277,3.627022622913122,-1.2909379284217952,1.615783929824829,-0.540810227394104,3.1252479553222656,,,,,,
1764808602.451048,,,,,,,0.393140971660614,0.19923603534698486,0.25133949518203735,0.029838010668754578,-0.0012849853374063969,-3.675527334213257
1764808602.456809,-0.3101647772591561,2.9930712241470814,-1.4309662845760582,1.7127439975738525,-0.35401827096939087,3.1451828479766846,,,,,,
1764808602.461078,,,,,,,0.2808470129966736,0.1142413318157196,0.2383825182914734,-0.03027934953570366,0.20817184448242188,-3.6886463165283203
1764808602.466861,-0.6816548877704888,2.2175497927427292,-1.0073170938909053,1.6735743284225464,-0.24340690672397614,3.0803582668304443,,,,,,
1764808602.471109,,,,,,,0.21149814128875732,0.10213106870651245,0.2249240130186081,-0.12800323963165283,0.6469380259513855,-3.6287178993225098
1764808602.476914,-0.707829047338292,2.324235559004545,-0.3952046019673347,1.5670044422149658,-0.16516217589378357,2.943969249725342,,,,,,
1764808602.481139,,,,,,,0.3073456287384033,0.16721253097057343,0.18307965993881226,-0.11622639000415802,0.8014658093452454,-3.5538856983184814
1764808602.486966,-0.26463848616331814,2.9448528444230555,-0.21649609428495167,1.5212786197662354,-0.15247097611427307,2.8321449756622314,,,,,,
1764808602.491169,,,,,,,0.47586971521377563,0.17634063959121704,0.10895722359418869,0.0612272210419178,0.5983108282089233,-3.503850221633911
1764808602.497018,0.3389465620420873,3.3720980137735603,-0.173844701038301,1.5432316064834595,-0.2182995229959488,2.8004868030548096,,,,,,
1764808602.501199,,,,,,,0.5600863695144653,0.11221691966056824,0.07294904440641403,0.1927887201309204,0.3557884693145752,-3.474087715148926
1764808602.507071,0.6530554738171398,3.3100393247455355,-0.2634837631702423,1.6034061908721924,-0.29003360867500305,2.827183246612549,,,,,,
1764808602.511229,,,,,,,0.5098726749420166,0.015440374612808228,0.08647996932268143,0.2358245998620987,0.2622859477996826,-3.441582679748535
1764808602.517123,0.5614451116122305,2.6977771952182055,-0.4292112087264657,1.6679761409759521,-0.3265298306941986,2.857942819595337,,,,,,
1764808602.521259,,,,,,,0.3699004650115967,-0.07587465643882751,0.12332236021757126,0.16784018278121948,0.2912571430206299,-3.379042387008667
1764808602.527175,0.2028229582414031,1.8639082042634485,-0.4041317125275731,1.6738404035568237,-0.35698583722114563,2.8346922397613525,,,,,,
1764808602.531289,,,,,,,0.2321171760559082,-0.10743990540504456,0.15618032217025757,0.058662302792072296,0.5777461528778076,-3.2574267387390137
1764808602.537228,-0.280340205425024,1.7078525501549242,0.2612998432599008,1.5600193738937378,-0.40472590923309326,2.7129085063934326,,,,,,
1764808602.541319,,,,,,,0.21330732107162476,-0.07495278120040894,0.16406428813934326,-0.021642809733748436,0.9823599457740784,-3.038449764251709
1764808602.54728,-0.605804331690073,2.548650463590026,0.5470619276031852,1.4531853199005127,-0.3961974084377289,2.5271031856536865,,,,,,
1764808602.551349,,,,,,,0.36934053897857666,-0.03215858340263367,0.0858500599861145,0.10843529552221298,0.9414732456207275,-2.933237075805664
1764808602.557332,-0.5782309728488326,3.4490813002109526,0.4177295913778245,1.4259659051895142,-0.40041932463645935,2.375781297683716,,,,,,
1764808602.561379,,,,,,,0.5525799989700317,-0.027667313814163208,0.0029891133308410645,0.33100125193595886,0.6319659948348999,-2.9021377563476562
1764808602.567385,-0.4246083911061287,3.7743513652086254,0.6195965640686452,1.443625569343567,-0.4840382933616638,2.316685676574707,,,,,,
1764808602.571409,,,,,,,0.6148818135261536,-0.04345741868019104,-0.008372247219085693,0.4745248556137085,0.4026995003223419,-2.820356845855713
1764808602.577437,-0.5226368036597967,3.414778048592806,0.7781514876469969,1.4759254455566406,-0.5678754448890686,2.310466766357422,,,,,,
1764808602.581439,,,,,,,0.5242645740509033,-0.09238022565841675,0.0361403226852417,0.4823260009288788,0.3136974573135376,-2.7277615070343018
1764808602.587489,-0.9542112343862652,2.7191537452459333,0.6318810222327709,1.507939338684082,-0.5811890959739685,2.306806802749634,,,,,,
1764808602.591469,,,,,,,0.3700432777404785,-0.1650606393814087,0.08103793859481812,0.36877599358558655,0.3474389314651489,-2.6181743144989014
1764808602.597542,-1.481749254091084,1.9606138437807559,0.4181505202036351,1.5225303173065186,-0.5393868088722229,2.258413314819336,,,,,,
1764808602.6015,,,,,,,0.24991297721862793,-0.22226768732070923,0.1107073426246643,0.2732184827327728,0.4917739927768707,-2.5032944679260254
1764808602.607594,-1.9176406712338327,1.5167916336387395,0.5654967981558293,1.4681590795516968,-0.4781621992588043,2.1338911056518555,,,,,,
1764808602.61153,,,,,,,0.19997280836105347,-0.23096656799316406,0.1374233365058899,0.17589779198169708,0.7920922636985779,-2.3759114742279053
1764808602.617646,-2.1497657118052245,1.8897160147368908,0.9666144966244697,1.3826502561569214,-0.339731901884079,1.940495491027832,,,,,,
1764808602.62156,,,,,,,0.2641948461532593,-0.18141508102416992,0.1262495517730713,0.18028293550014496,0.9289255142211914,-2.2404367923736572
1764808602.627699,-2.1058818541541693,2.6138497887313363,0.7981856831550598,1.3793343305587769,-0.11984103173017502,1.7524360418319702,,,,,,
1764808602.63159,,,,,,,0.40089911222457886,-0.15740877389907837,0.0647193193435669,0.2974044978618622,0.7739364504814148,-2.1654913425445557
1764808602.637751,-1.8274834304466843,3.0963316921353337,0.8015490221083164,1.4178180694580078,0.059374529868364334,1.6440746784210205,,,,,,
1764808602.64162,,,,,,,0.485904335975647,-0.15683424472808838,0.024512948468327522,0.40421849489212036,0.622623860836029,-2.069413423538208
1764808602.647803,-1.5910340969353913,3.095958767169714,1.1018763690292834,1.4457954168319702,0.1500502973794937,1.614361047744751,,,,,,
1764808602.65165,,,,,,,0.4645448923110962,-0.16542339324951172,0.005631629377603531,0.456548810005188,0.5720664262771606,-1.9623610973358154
1764808602.657856,-1.6017004523783922,2.6068472164928913,1.194588554996252,1.4460079669952393,0.18663440644741058,1.6160119771957397,,,,,,
1764808602.66168,,,,,,,0.37385696172714233,-0.2016540765762329,0.0006023682653903961,0.49397012591362,0.5885987877845764,-1.8602224588394165
1764808602.667908,-1.7269775218635797,1.88865393846333,1.215575228923559,1.4005926847457886,0.20169612765312195,1.5912234783172607,,,,,,
1764808602.67171,,,,,,,0.2815300226211548,-0.2392408847808838,0.010315239429473877,0.5055610537528992,0.69090735912323,-1.7609480619430542
1764808602.67796,-1.9066782554537056,1.3367454476118088,1.2832219472169875,1.3003114461898804,0.20523813366889954,1.4962844848632812,,,,,,
1764808602.68174,,,,,,,0.23858928680419922,-0.2398788332939148,0.028217434883117676,0.5215063095092773,0.8413493037223816,-1.6383886337280273
1764808602.688013,-2.0073235725075005,1.2491636102706194,1.411257375499606,1.1799850463867188,0.25215503573417664,1.3359817266464233,,,,,,
1764808602.69177,,,,,,,0.25981998443603516,-0.2174118161201477,0.038238465785980225,0.5895002484321594,0.941440999507904,-1.5080634355545044
1764808602.698065,-1.9901696086108684,1.6355349174410103,1.3005933532565832,1.0916924476623535,0.36062878370285034,1.1497896909713745,,,,,,
1764808602.7018,,,,,,,0.3277650475502014,-0.20590710639953613,0.012174606323242188,0.7121562361717224,0.9082697629928589,-1.392377495765686
1764808602.708117,-1.7706038976222276,2.1534745031952855,1.1928700606405733,1.0518920421600342,0.4603312015533447,1.0167690515518188,,,,,,
1764808602.71183,,,,,,,0.3900165557861328,-0.21347153186798096,-0.010827243328094482,0.8238414525985718,0.8074880242347717,-1.3012113571166992
1764808602.71817,-1.5141858350545168,2.4770494547128674,1.2891601050943136,1.0318886041641235,0.498602956533432,0.967067539691925,,,,,,
1764808602.72186,,,,,,,0.39902621507644653,-0.21915686130523682,-0.009601952508091927,0.8571418523788452,0.7356963753700256,-1.1933043003082275
1764808602.728222,-1.433305541178584,2.4743103851377963,1.3508844476014374,1.0257681608200073,0.4892711341381073,0.9595853686332703,,,,,,
1764808602.731891,,,,,,,0.36523497104644775,-0.23185569047927856,-0.003896774724125862,0.8353978991508484,0.6945548057556152,-1.095327377319336
1764808602.738274,-1.552597106513381,2.161249228850007,1.3241454937577246,1.0181832313537598,0.45899471640586853,0.9382646083831787,,,,,,
1764808602.741921,,,,,,,0.3114301562309265,-0.2592688798904419,0.007418513298034668,0.7695140838623047,0.6859903335571289,-1.015315055847168
1764808602.748327,-1.7693302244246005,1.7650573694109917,1.3230600366085767,1.0023564100265503,0.41831889748573303,0.8740463852882385,,,,,,
1764808602.751951,,,,,,,0.2664451003074646,-0.28152209520339966,0.016701100394129753,0.6649203300476074,0.7108938097953796,-0.9413296580314636
1764808602.758379,-1.9072937570035458,1.4706921457648277,1.3664397441297769,0.9649547338485718,0.3830338716506958,0.7705045938491821,,,,,,
1764808602.761981,,,,,,,0.24588125944137573,-0.2976642847061157,0.023091673851013184,0.558045506477356,0.7473809719085693,-0.8777546286582947
1764808602.768431,-1.9330121356278658,1.4151000224024057,1.4933563975155353,0.910786509513855,0.35425782203674316,0.6534396409988403,,,,,,
1764808602.772011,,,,,,,0.25121009349823,-0.3013905882835388,0.02527564764022827,0.46119967103004456,0.7811527848243713,-0.8086621165275574
1764808602.778484,-1.8799200123876332,1.5806412977367639,1.5288000513404607,0.8703112602233887,0.3601900041103363,0.5528110265731812,,,,,,
1764808602.782041,,,,,,,0.27525949478149414,-0.28690606355667114,0.01248842477798462,0.42271193861961365,0.7468124032020569,-0.7291110754013062
1764808602.788536,-1.8374381304889917,1.7222534159511327,1.3969050250202417,0.8567650318145752,0.3757645785808563,0.49472352862358093,,,,,,
1764808602.792071,,,,,,,0.29301291704177856,-0.27120858430862427,-0.0009721508249640465,0.42819350957870483,0.663943886756897,-0.6581043004989624
1764808602.798588,-1.854628919264674,1.7198329108059405,1.3485446064770221,0.8453028202056885,0.3781803548336029,0.47263795137405396,,,,,,
1764808602.802101,,,,,,,0.28394079208374023,-0.26248788833618164,-0.014995396137237549,0.44708898663520813,0.6136359572410583,-0.6007358431816101
1764808602.808641,-1.9694336945742368,1.563535264635086,1.3866758919507265,0.8150986433029175,0.37052637338638306,0.4570804834365845,,,,,,
1764808602.812131,,,,,,,0.25586527585983276,-0.258711576461792,-0.02211683802306652,0.433981716632843,0.5974471569061279,-0.5415225625038147
1764808602.818693,-2.1039327659130094,1.3272709323018788,1.375676943552494,0.7751455903053284,0.3722529113292694,0.41951125860214233,,,,,,
1764808602.822161,,,,,,,0.22729253768920898,-0.2577144503593445,-0.015392541885375977,0.4289501905441284,0.5763096213340759,-0.4815146028995514
1764808602.828745,-2.2074171057850123,1.0835177055180072,1.2960744145274161,0.7302268147468567,0.3944866955280304,0.35496044158935547,,,,,,
1764808602.832191,,,,,,,0.20845723152160645,-0.2601286768913269,-0.011811613105237484,0.4319790005683899,0.5558003783226013,-0.4260726571083069
1764808602.838798,-2.223616545435786,0.9107125766605139,1.2745891434282064,0.6678798198699951,0.4274161458015442,0.27309858798980713,,,,,,
1764808602.842221,,,,,,,0.19604861736297607,-0.2576649785041809,-0.01803445816040039,0.4311312437057495,0.5627208948135376,-0.3652553856372833
1764808602.84885,-2.1163684691160918,0.8694155206322669,1.2582201924294232,0.6011596322059631,0.4653298556804657,0.19251401722431183,,,,,,
1764808602.852251,,,,,,,0.19518131017684937,-0.2540239095687866,-0.017163991928100586,0.4192069470882416,0.564039409160614,-0.30261489748954773
1764808602.858902,-1.956065094435215,0.9365946214139461,1.2286030528008938,0.5409841537475586,0.4969543516635895,0.1253429651260376,,,,,,
1764808602.862281,,,,,,,0.20225220918655396,-0.25522541999816895,-0.019460022449493408,0.40902090072631836,0.5295684933662415,-0.23351319134235382
1764808602.868955,-1.8103093005448578,1.000174820920825,1.1582792242527007,0.49731650948524475,0.5218098163604736,0.07767695933580399,,,,,,
1764808602.872312,,,,,,,0.20926934480667114,-0.2589895725250244,-0.01779353618621826,0.38959741592407227,0.47968828678131104,-0.1581486612558365
1764808602.879007,-1.6886685417354106,1.0040981318444013,1.066705759992078,0.46894025802612305,0.5274130702018738,0.036626193672418594,,,,,,
1764808602.882342,,,,,,,0.20115894079208374,-0.2578762173652649,-0.01469182875007391,0.38318803906440735,0.43594133853912354,-0.08874582499265671
1764808602.889059,-1.6305600516378878,0.9241641789078712,1.034402596149966,0.4466680884361267,0.5202377438545227,-0.0005613495595753193,,,,,,
1764808602.892372,,,,,,,0.1789122223854065,-0.25263768434524536,-0.008610904216766357,0.3833547532558441,0.41501930356025696,-0.025590291246771812
1764808602.899112,-1.5933821213662624,0.7973807965129613,0.9669406598389149,0.4240304231643677,0.5061184763908386,-0.04590432718396187,,,,,,
1764808602.902402,,,,,,,0.15284425020217896,-0.2497168779373169,0.002117931842803955,0.37162041664123535,0.41321659088134766,0.0400044284760952
1764808602.909164,-1.6112193913519381,0.6582318535417317,0.8974597118556499,0.4017040729522705,0.49504634737968445,-0.1050759106874466,,,,,,
1764808602.912432,,,,,,,0.13137555122375488,-0.24600130319595337,0.01047348789870739,0.34929272532463074,0.41512662172317505,0.10303453356027603
1764808602.919217,-1.6110516335695981,0.5264274281144142,0.8199942679245025,0.3838174641132355,0.48769283294677734,-0.17158517241477966,,,,,,
1764808602.922462,,,,,,,0.11673706769943237,-0.24337607622146606,0.021985111758112907,0.33230140805244446,0.4205639958381653,0.17620934545993805
1764808602.929269,-1.497336991584301,0.507678888502717,0.7262615067381412,0.38634926080703735,0.4776010513305664,-0.23272261023521423,,,,,,
1764808602.932492,,,,,,,0.10274600982666016,-0.2398725152015686,0.03102087788283825,0.33028778433799744,0.43993157148361206,0.24389304220676422
1764808602.939321,-1.2819260621875523,0.4985960028588772,0.6965910294871777,0.3868459463119507,0.44344547390937805,-0.28375622630119324,,,,,,
1764808602.942522,,,,,,,0.09434884786605835,-0.22561419010162354,0.021849872544407845,0.3274812698364258,0.47663605213165283,0.30711880326271057
1764808602.949374,-1.0712222875684498,0.4976444012224674,0.8470909491647034,0.3535844385623932,0.3733048737049103,-0.3311244249343872,,,,,,
1764808602.952552,,,,,,,0.10016506910324097,-0.19998997449874878,0.0020752549171447754,0.3215421736240387,0.5032032132148743,0.37477561831474304
1764808602.959426,-0.9430471585541963,0.5449076721787453,0.9176958596765995,0.3029913008213043,0.29683592915534973,-0.3718907833099365,,,,,,
1764808602.962582,,,,,,,0.11826670169830322,-0.17329269647598267,-0.016655681654810905,0.3572200834751129,0.4774187505245209,0.42034831643104553
1764808602.969478,-0.9067167850226163,0.5041916309088468,0.8472130411744118,0.25132763385772705,0.2478494644165039,-0.4007388949394226,,,,,,
1764808602.972612,,,,,,,0.13062506914138794,-0.14720392227172852,-0.036746323108673096,0.4265799820423126,0.43302997946739197,0.44772401452064514
1764808602.979531,-0.9522773437142371,0.4464543122112751,0.7461796015858649,0.20054219663143158,0.23165370523929596,-0.4136698842048645,,,,,,
1764808602.982642,,,,,,,0.12977254390716553,-0.12541931867599487,-0.04435992240905762,0.4970587491989136,0.40286195278167725,0.47908392548561096
1764808602.989583,-0.9986065486907958,0.43012978487610815,0.6774211957234889,0.14849993586540222,0.23907363414764404,-0.4200763702392578,,,,,,
1764808602.992672,,,,,,,0.12048566341400146,-0.11083221435546875,-0.03515613079071045,0.5420512557029724,0.38131511211395264,0.5179181098937988
1764808602.999635,-1.0685299797445535,0.45648236975073814,0.5696487302035093,0.10764357447624207,0.2568022906780243,-0.4193810224533081,,,,,,
1764808603.002703,,,,,,,0.10776013135910034,-0.10333865880966187,-0.0272675734013319,0.5599138736724854,0.34818965196609497,0.5313670635223389
1764808603.009688,-1.119773844769597,0.4767027354806661,0.46527357897162436,0.0817248746752739,0.27097436785697937,-0.41693735122680664,,,,,,
1764808603.012733,,,,,,,0.09344077110290527,-0.10749673843383789,-0.020949361845850945,0.5373148322105408,0.32385769486427307,0.5259726047515869
1764808603.01974,-1.1309791293948888,0.46685178807377814,0.47985915368497367,0.058314088732004166,0.2829892337322235,-0.4151192009449005,,,,,,
1764808603.022763,,,,,,,0.08297860622406006,-0.11545759439468384,-0.007599471136927605,0.4877166450023651,0.3147145211696625,0.5111872553825378
1764808603.029792,-1.1185872653335331,0.48098085119128225,0.5765548563301562,0.02525082789361477,0.3011895716190338,-0.42836567759513855,,,,,,
1764808603.032793,,,,,,,0.08277106285095215,-0.10826951265335083,-0.0016978979110717773,0.3973286747932434,0.30889633297920227,0.4993516504764557
1764808603.039845,-1.0440455268293618,0.5430570758759975,0.5749082581669092,-0.0007991483435034752,0.33242473006248474,-0.4491279423236847,,,,,,
1764808603.042823,,,,,,,0.09649652242660522,-0.09133100509643555,-0.0030750632286071777,0.280754417181015,0.2578062415122986,0.48270130157470703
1764808603.049897,-0.9222241507560014,0.5543699125289917,0.4944026428222656,-0.01221493910998106,0.3435066342353821,-0.45798438787460327,,,,,,
1764808603.052852,,,,,,,0.10618042945861816,-0.09086275100708008,-0.007860183715820312,0.18864154815673828,0.20481625199317932,0.46730858087539673
1764808603.059949,-0.71920216281116,0.5753127473145723,0.4839292526680976,-0.02451155334711075,0.3381637930870056,-0.45287084579467773,,,,,,
1764808603.062882,,,,,,,0.10006344318389893,-0.09594178199768066,-0.004701793193817139,0.09987045079469681,0.17900650203227997,0.4586641490459442
1764808603.070002,-0.5147071797043085,0.5965402442604303,0.43626551115214823,-0.03576873242855072,0.31906548142433167,-0.4477136433124542,,,,,,
1764808603.072912,,,,,,,0.08738058805465698,-0.08494102954864502,0.0007964391261339188,0.032290875911712646,0.16230075061321259,0.4534541964530945
1764808603.080054,-0.3578840483546257,0.5627905348718166,0.3791244047820568,-0.040497973561286926,0.29417183995246887,-0.4534341096878052,,,,,,
1764808603.082942,,,,,,,0.0777096152305603,-0.06403166055679321,0.0006091594696044922,0.008050269447267056,0.14295582473278046,0.45420560240745544
1764808603.090106,-0.20079554406702518,0.49468029071986674,0.3327688963204622,-0.04329943656921387,0.2622470259666443,-0.4611188769340515,,,,,,
1764808603.092972,,,,,,,0.07020783424377441,-0.047016680240631104,-0.010809659957885742,0.010263355448842049,0.12397519499063492,0.46526622772216797
1764808603.100159,-0.06882043824791907,0.4188157791793346,0.33047409991417076,-0.05155044049024582,0.22624079883098602,-0.4659501016139984,,,,,,
1764808603.103002,,,,,,,0.06383693218231201,-0.04452723264694214,-0.022858919575810432,0.03796423599123955,0.10362491756677628,0.46213069558143616
1764808603.110211,0.034867315241694445,0.28005905039608475,0.37713176966011525,-0.07295634597539902,0.17965108156204224,-0.465071439743042,,,,,,
1764808603.113032,,,,,,,0.05552953481674194,-0.045472800731658936,-0.02951633930206299,0.02780800312757492,0.09004492312669754,0.440737783908844
1764808603.120264,0.09678864162564277,0.15928806015849112,0.45395500669758765,-0.09644036740064621,0.12373536080121994,-0.46061331033706665,,,,,,
1764808603.123062,,,,,,,0.04893261194229126,-0.03076392412185669,-0.02887701988220215,0.008825213648378849,0.0846317857503891,0.4473039507865906
1764808603.130316,0.0992623382627964,0.13819091159403324,0.425077762183547,-0.11336279660463333,0.079314686357975,-0.45883893966674805,,,,,,
1764808603.133092,,,,,,,0.04466676712036133,-0.013724863529205322,-0.024460434913635254,0.007987650111317635,0.07524467259645462,0.4638001024723053
1764808603.140368,0.05796411319077015,0.16141279722750185,0.31034539452306925,-0.12363621592521667,0.061754342168569565,-0.4565877914428711,,,,,,
1764808603.143123,,,,,,,0.038859426975250244,-0.0008988380432128906,-0.023860633373260498,0.009460368193686008,0.06375207006931305,0.47081586718559265
1764808603.150421,0.05491232440471649,0.1930734253823757,0.187754349251464,-0.12463893741369247,0.06764023751020432,-0.4544750154018402,,,,,,
1764808603.153153,,,,,,,0.031730711460113525,0.00525510311126709,-0.02092176489531994,0.020525537431240082,0.052424848079681396,0.48154309391975403
1764808603.160473,0.046775195178389545,0.15708324359059334,0.10288871206641197,-0.12474813312292099,0.0878557562828064,-0.45015108585357666,,,,,,
1764808603.163183,,,,,,,0.02332913875579834,5.14984130859375e-05,-0.020827053114771843,0.02124919183552265,0.034764364361763,0.48612353205680847
1764808603.170525,0.050955695733428,0.061436757737398144,0.07815050358586013,-0.13296887278556824,0.11094357073307037,-0.4449685513973236,,,,,,
1764808603.173213,,,,,,,0.014950275421142578,-0.005964040756225586,-0.01981949806213379,-0.009674637578427792,0.02693866193294525,0.4661088287830353
1764808603.180578,0.07497428470253945,-0.030392800176143646,0.10876958679854869,-0.14183638989925385,0.12660828232765198,-0.4373774826526642,,,,,,
1764808603.183243,,,,,,,0.004332423210144043,0.0008910894393920898,-0.01715308427810669,-0.051794350147247314,0.024071237072348595,0.4528557360172272
1764808603.19063,0.13460545432269572,-0.10595511389970778,0.12539397386312484,-0.1461583524942398,0.12327446788549423,-0.42144089937210083,,,,,,
1764808603.193273,,,,,,,-0.0023686885833740234,0.0095633864402771,-0.01571929082274437,-0.06091541051864624,0.011465963907539845,0.43458110094070435
1764808603.200682,0.18191724059581754,-0.1336567752957344,0.13052903519663958,-0.149039626121521,0.11553212255239487,-0.40870219469070435,,,,,,
1764808603.203303,,,,,,,-0.008422315120697021,0.022253692150115967,-0.01664835214614868,-0.07288789004087448,0.0056924968957901,0.4135220944881439
1764808603.210735,0.23880407994389533,-0.1276607497513294,0.06574585310816765,-0.14595867693424225,0.11482125520706177,-0.39711588621139526,,,,,,
1764808603.213333,,,,,,,-0.014285087585449219,0.03649967908859253,-0.017001211643218994,-0.072111576795578,0.002106284024193883,0.39463335275650024
1764808603.220787,0.3020224604010582,-0.13570669356286524,-0.005224493182636797,-0.1445551961660385,0.11800586432218552,-0.3811505138874054,,,,,,
1764808603.223363,,,,,,,-0.019265413284301758,0.04335582256317139,-0.020924925804138184,-0.048427764326334,-0.003547607222571969,0.3797840178012848
1764808603.230839,0.38735213490128517,-0.16892974872887134,-0.014418985974788665,-0.14316727221012115,0.11675865948200226,-0.3611922562122345,,,,,,
1764808603.233393,,,,,,,-0.022144019603729248,0.049061477184295654,-0.020508944988250732,-0.02334185317158699,0.0058570802211761475,0.3616606891155243
1764808603.240892,0.4635977547138929,-0.15549042144119737,-0.025355353998206553,-0.1438160240650177,0.11836668103933334,-0.33169081807136536,,,,,,
1764808603.243423,,,,,,,-0.022067785263061523,0.0627245306968689,-0.01810455322265625,0.006607302464544773,0.004954534582793713,0.3499564826488495
1764808603.250944,0.49674014585912224,-0.12006781040430069,-0.07935699329879134,-0.1337612122297287,0.12983253598213196,-0.3004843592643738,,,,,,
1764808603.253453,,,,,,,-0.019434690475463867,0.06962341070175171,-0.012666462920606136,0.05402595177292824,-0.01167078036814928,0.3272716701030731
1764808603.260996,0.4859451956003904,-0.11599895353019236,-0.14976557752098887,-0.1196291446685791,0.14095737040042877,-0.2648177146911621,,,,,,
1764808603.263483,,,,,,,-0.022735655307769775,0.07137507200241089,-0.008132874965667725,0.06377187371253967,-0.016675394028425217,0.29840466380119324
1764808603.271049,0.42623920717835423,-0.12307634457051753,-0.18276362829208373,-0.10026872158050537,0.14921699464321136,-0.2308824062347412,,,,,,
1764808603.273514,,,,,,,-0.03159785270690918,0.07377737760543823,0.0012351274490356445,0.06911949813365936,-0.007980437949299812,0.2727123498916626
1764808603.281101,0.37615269549489017,-0.1566314081698656,-0.2233125328341499,-0.07750482112169266,0.15214967727661133,-0.2027607560157776,,,,,,
1764808603.283544,,,,,,,-0.04282259941101074,0.06773924827575684,0.007128475233912468,0.08062490075826645,0.002588582457974553,0.24854505062103271
1764808603.291154,0.3518056052237749,-0.21771862181723117,-0.24803839328978208,-0.05572706088423729,0.16030319035053253,-0.18014797568321228,,,,,,
1764808603.293574,,,,,,,-0.049129486083984375,0.06643885374069214,0.013733625411987305,0.09119977802038193,0.020565718412399292,0.22311240434646606
1764808603.301206,0.31815351099073885,-0.2526251000255346,-0.28927343519879506,-0.035786110907793045,0.17853039503097534,-0.15925121307373047,,,,,,
1764808603.303604,,,,,,,-0.05324721336364746,0.06749069690704346,0.019369125366210938,0.11983643472194672,0.04293227940797806,0.19762155413627625
1764808603.311258,0.2946539774596691,-0.261499895876646,-0.2939530991813168,-0.02216237038373947,0.203995943069458,-0.14441995322704315,,,,,,
1764808603.313634,,,,,,,-0.05603271722793579,0.06888478994369507,0.022291479632258415,0.16369657218456268,0.07162410765886307,0.1788790374994278
1764808603.321311,0.2614782685667276,-0.2236164476841688,-0.30057222506012765,-0.011433027684688568,0.22857852280139923,-0.12656106054782867,,,,,,
1764808603.323664,,,,,,,-0.05201071500778198,0.07261234521865845,0.018826602026820183,0.21006593108177185,0.09531904757022858,0.17524302005767822
1764808603.331363,0.22293080350756644,-0.16769290041029453,-0.3286731514394283,0.002924197819083929,0.25692152976989746,-0.10919269174337387,,,,,,
1764808603.333694,,,,,,,-0.040836870670318604,0.06367450952529907,0.017530858516693115,0.2739748954772949,0.09382954239845276,0.15994715690612793
1764808603.341415,0.1896668318092823,-0.1440355459690094,-0.3234884422779083,0.009158657863736153,0.2789567708969116,-0.09391307085752487,,,,,,
1764808603.343724,,,,,,,-0.032993435859680176,0.04845517873764038,0.0176235418766737,0.306205153465271,0.10067972540855408,0.13753865659236908
1764808603.351468,0.13446283098161219,-0.15719371822774408,-0.27512042495012284,0.00429950188845396,0.29041388630867004,-0.08204967528581619,,,,,,
1764808603.353754,,,,,,,-0.027344107627868652,0.04392850399017334,0.02158874087035656,0.3263634145259857,0.1126418486237526,0.1315302848815918
1764808603.36152,0.08978431582152843,-0.11267828467488288,-0.2702478322113864,-0.005983229260891676,0.28969961404800415,-0.07836093008518219,,,,,,
1764808603.363784,,,,,,,-0.02141094207763672,0.045123398303985596,0.022130489349365234,0.3531626760959625,0.11860253661870956,0.13665567338466644
1764808603.371572,0.08434475511610508,-0.029807693764567374,-0.30854163303673265,-0.012141257524490356,0.2795489728450775,-0.07443622499704361,,,,,,
1764808603.373814,,,,,,,-0.00851970911026001,0.04311573505401611,0.02119767665863037,0.38436827063560486,0.11747415363788605,0.14255377650260925
1764808603.381625,0.09081248982548713,0.06799801594913006,-0.3289092982828617,-0.019192509353160858,0.2619588077068329,-0.0678078830242157,,,,,,
1764808603.383844,,,,,,,0.002745389938354492,0.02950143814086914,0.025048498064279556,0.39868709444999695,0.10305286943912506,0.12840473651885986
1764808603.391677,0.10687690491974353,0.14347440495491026,-0.33771745863854885,-0.02524242177605629,0.235051691532135,-0.05790691822767258,,,,,,
1764808603.393874,,,,,,,0.010149955749511719,0.0065988898277282715,0.030309800058603287,0.37987399101257324,0.08624646067619324,0.12213005870580673
1764808603.401729,0.06935702934265137,0.1762999852359295,-0.27856035453723743,-0.031649988144636154,0.1915936917066574,-0.051762208342552185,,,,,,
1764808603.403904,,,,,,,0.016996264457702637,-0.016922593116760254,0.04043364152312279,0.33594611287117004,0.08001119643449783,0.11598967015743256
1764808603.411782,0.009800678524374962,0.2330021156668663,-0.2036187847942114,-0.03514875844120979,0.1360529512166977,-0.05517790466547012,,,,,,
1764808603.413935,,,,,,,0.02384054660797119,-0.027549147605895996,0.048472464084625244,0.267208069562912,0.06808103621006012,0.10275456309318542
1764808603.421834,-0.08251520160138606,0.3267915754765272,-0.17207562727285547,-0.03254205733537674,0.0743807852268219,-0.06491708755493164,,,,,,
1764808603.423965,,,,,,,0.033842504024505615,-0.025345563888549805,0.04901200532913208,0.1965360939502716,0.04445267841219902,0.10099121928215027
1764808603.431887,-0.13817220689356327,0.37643618861138817,-0.19140401259912176,-0.025991905480623245,0.017422080039978027,-0.07797899842262268,,,,,,
1764808603.433995,,,,,,,0.03976351022720337,-0.026313185691833496,0.04889225587248802,0.14608968794345856,0.023775892332196236,0.11417679488658905
1764808603.441939,-0.17496727532744408,0.3742874861449003,-0.17312193972170353,-0.022542845457792282,-0.022665683180093765,-0.08791685104370117,,,,,,
1764808603.444025,,,,,,,0.03925025463104248,-0.03222149610519409,0.04732006788253784,0.11101970076560974,0.018899643793702126,0.13670973479747772
1764808603.451991,-0.21997195370197295,0.31637539540231224,-0.17882687336504458,-0.022036053240299225,-0.043154243379831314,-0.09997200965881348,,,,,,
1764808603.454055,,,,,,,0.037369608879089355,-0.048267900943756104,0.04222613573074341,0.09519519656896591,0.009417726658284664,0.1549348086118698
1764808603.462044,-0.2610007141828537,0.2065887405157089,-0.14416938321543857,-0.03174646943807602,-0.055315569043159485,-0.11247768253087997,,,,,,
1764808603.464085,,,,,,,0.031521499156951904,-0.07137566804885864,0.04113149642944336,0.07508248835802078,0.0018098740838468075,0.14001797139644623
1764808603.472096,-0.33613048170804977,0.14477730424702168,-0.02072597716450691,-0.04373372718691826,-0.0716848149895668,-0.1257127821445465,,,,,,
1764808603.474115,,,,,,,0.026772022247314453,-0.07298684120178223,0.04537606239318848,0.02564329467713833,0.012254525907337666,0.14487238228321075
1764808603.482148,-0.46044601268470287,0.13801847763657568,0.03297348258541897,-0.05615204572677612,-0.09416855126619339,-0.1410035938024521,,,,,,
1764808603.484145,,,,,,,0.028142988681793213,-0.05477482080459595,0.04625171422958374,-0.0026403663214296103,0.026471011340618134,0.18047599494457245
1764808603.492201,-0.5641857886224985,0.20572481716275215,0.0017570545340888201,-0.05300509184598923,-0.1039978638291359,-0.1614004671573639,,,,,,
1764808603.494175,,,,,,,0.031169772148132324,-0.045776546001434326,0.039539698511362076,-0.001928503392264247,0.02548457682132721,0.20260712504386902
1764808603.502253,-0.6032265901565551,0.29993805534243584,-0.01864683280289173,-0.04796931892633438,-0.09838072210550308,-0.1810958832502365,,,,,,
1764808603.504205,,,,,,,0.033922672271728516,-0.0539318323135376,0.03664213418960571,0.0004201669944450259,0.033876463770866394,0.19805091619491577
1764808603.512305,-0.6036503685265779,0.3547942656457424,0.041888007658720014,-0.04773975536227226,-0.08778640627861023,-0.1990296095609665,,,,,,
1764808603.514235,,,,,,,0.03709012269973755,-0.06503921747207642,0.04219549894332886,-0.024285977706313133,0.04647721350193024,0.1976892650127411
1764808603.522358,-0.5839151559650898,0.35480887869298455,0.06628772316621616,-0.041077591478824615,-0.07697609812021255,-0.21030329167842865,,,,,,
1764808603.524265,,,,,,,0.0414465069770813,-0.06121397018432617,0.04599529504776001,-0.06421167403459549,0.05215693637728691,0.20350946485996246
1764808603.53241,-0.6036784255772829,0.34429566798508165,0.08141746949255466,-0.030504103749990463,-0.06909103691577911,-0.21910133957862854,,,,,,
1764808603.534295,,,,,,,0.04435092210769653,-0.06024843454360962,0.04619425907731056,-0.07599323242902756,0.05287359282374382,0.21502497792243958
1764808603.542463,-0.6347440104484557,0.3456161029338837,0.11852172260661609,-0.014302765019237995,-0.05529293417930603,-0.2285555601119995,,,,,,
1764808603.544325,,,,,,,0.040030062198638916,-0.06238389015197754,0.043896790593862534,-0.08316738903522491,0.06179171800613403,0.21937020123004913
1764808603.552515,-0.669136109393835,0.30583529668748377,0.10836683295024559,0.0012792882043868303,-0.03794575855135918,-0.24350465834140778,,,,,,
1764808603.554356,,,,,,,0.029355883598327637,-0.058060288429260254,0.04440265893936157,-0.08510643243789673,0.08535696566104889,0.2322804033756256
1764808603.562567,-0.7021984210401773,0.2575976277410984,0.090754046769673,0.01618952862918377,-0.011990321800112724,-0.26418599486351013,,,,,,
1764808603.564386,,,,,,,0.019572317600250244,-0.0525897741317749,0.042773306369781494,-0.06043275445699692,0.11413081735372543,0.2592792510986328
1764808603.57262,-0.713664986950159,0.19073007712662218,0.08061258285045624,0.029587937518954277,0.019942205399274826,-0.28956636786460876,,,,,,
1764808603.574416,,,,,,,0.016443312168121338,-0.058323562145233154,0.035115838050842285,-0.02024458535015583,0.13465580344200134,0.2837664783000946
1764808603.582672,-0.7120072828710079,0.11887947740256785,0.135932921800483,0.027815338224172592,0.05494226887822151,-0.31641528010368347,,,,,,
1764808603.584446,,,,,,,0.01200878620147705,-0.07075589895248413,0.025752190500497818,0.010755904018878937,0.16451597213745117,0.2912304699420929
1764808603.592724,-0.6675321813285351,0.08966507335603237,0.2631891458715312,0.008555490523576736,0.08064240962266922,-0.3454550802707672,,,,,,
1764808603.594476,,,,,,,0.01520991325378418,-0.0703083872795105,0.013890979811549187,0.04199318587779999,0.20036904513835907,0.3168034553527832
1764808603.602777,-0.6105085638582706,0.09961305139660835,0.2849929996669292,-0.003660163376480341,0.10062917321920395,-0.3764055371284485,,,,,,
1764808603.604506,,,,,,,0.026406466960906982,-0.05637878179550171,0.0037434715777635574,0.08981265872716904,0.20692814886569977,0.3543030917644501
1764808603.612829,-0.5405711042791604,0.14920914921462536,0.232719207072258,-0.010484795086085796,0.11711161583662033,-0.3965301811695099,,,,,,
1764808603.614536,,,,,,,0.03668546676635742,-0.04056745767593384,-0.0061545949429273605,0.15698449313640594,0.196882426738739,0.38621628284454346
1764808603.622881,-0.43412440747022624,0.193854346626997,0.2014525466710329,-0.009243495762348175,0.13042421638965607,-0.4065700173377991,,,,,,
1764808603.624566,,,,,,,0.03456759452819824,-0.032965123653411865,-0.0033468008041381836,0.20866523683071136,0.1976078748703003,0.41113942861557007
1764808603.632934,-0.37498452849835157,0.19397943431138992,0.1775666441708803,-0.003297393675893545,0.14254216849803925,-0.4118766486644745,,,,,,
1764808603.634596,,,,,,,0.02320551872253418,-0.03147625923156738,0.0028595924377441406,0.2355935126543045,0.2091076672077179,0.4260494112968445
1764808603.642986,-0.32710137207806106,0.1630921286165714,0.16966098561286924,0.005346960853785276,0.15319614112377167,-0.4166508913040161,,,,,,
1764808603.644626,,,,,,,0.011449337005615234,-0.03810769319534302,0.002860546112060547,0.24858501553535461,0.22518517076969147,0.43421411514282227
1764808603.653039,-0.31059593521803613,0.10286766927838326,0.2184101112127304,0.006241790950298309,0.1505413055419922,-0.42350149154663086,,,,,,
1764808603.654656,,,,,,,0.0060163140296936035,-0.04668456315994263,0.003522278741002083,0.2150678038597107,0.23865623772144318,0.4347933530807495
1764808603.663091,-0.2970890956521034,0.052447980117797846,0.2564952194571495,-0.0010398239828646183,0.1409672349691391,-0.4375004172325134,,,,,,
1764808603.664686,,,,,,,0.009184658527374268,-0.04285144805908203,0.005125163123011589,0.1532544493675232,0.2455090880393982,0.4322279989719391
1764808603.673143,-0.28346798205673696,0.050150224569439884,0.2522182727903127,-0.012550742365419865,0.13202489912509918,-0.45180609822273254,,,,,,
1764808603.674716,,,,,,,0.017301201820373535,-0.029808342456817627,-0.0031050434336066246,0.11561359465122223,0.2414293885231018,0.4440937042236328
1764808603.683196,-0.215268306055665,0.06398118152320384,0.18975041843950746,-0.017651494592428207,0.129087433218956,-0.46457621455192566,,,,,,
1764808603.684747,,,,,,,0.02431696653366089,-0.022009849548339844,-0.013260363601148129,0.08887427300214767,0.21984900534152985,0.46497777104377747
1764808603.693248,-0.0960442529991269,0.061712652069330215,0.1488677884310484,-0.015486486256122589,0.1272701770067215,-0.4677125811576843,,,,,,
1764808603.694777,,,,,,,0.019718945026397705,-0.023625433444976807,-0.015687942504882812,0.07789751887321472,0.2081446796655655,0.4736863076686859
1764808603.7033,0.029103929409384725,0.0369043740272522,0.1649310344815254,-0.02042718231678009,0.11889933049678802,-0.46705129742622375,,,,,,
1764808603.704807,,,,,,,0.006461024284362793,-0.025973021984100342,-0.01438510324805975,0.0973958820104599,0.21652351319789886,0.4882880747318268
1764808603.713353,0.11609276929348707,-0.028504794472455977,0.17100421691536902,-0.02734438329935074,0.1083926409482956,-0.466209352016449,,,,,,
1764808603.714837,,,,,,,-0.0001621246337890625,-0.015222012996673584,-0.02142620086669922,0.07997401058673859,0.22507944703102112,0.4990687966346741
1764808603.723405,0.1266001347824931,-0.15269932941794395,0.20379940205812452,-0.0457787849009037,0.10314594954252243,-0.4745519757270813,,,,,,
1764808603.724867,,,,,,,-0.008180975914001465,-0.0008293390274047852,-0.009189248085021973,0.04205428436398506,0.20899555087089539,0.48704105615615845
1764808603.733457,0.10284867231696844,-0.3016507044792175,0.12707447429597377,-0.048326216638088226,0.10432814061641693,-0.4880964756011963,,,,,,
1764808603.734897,,,,,,,-0.02463144063949585,-0.0038163065910339355,-0.0081099271774292,0.09674442559480667,0.23659256100654602,0.5119032859802246
1764808603.74351,0.14057225377261637,-0.3247071704179048,0.03933598508834839,-0.052291929721832275,0.10633696615695953,-0.4950965940952301,,,,,,
1764808603.744927,,,,,,,-0.03050178289413452,0.012143135070800781,-0.023548781871795654,0.13350459933280945,0.26318714022636414,0.5565487742424011
1764808603.753562,0.17638415638804433,-0.2709633052706718,0.018456277525209588,-0.050191983580589294,0.10317748785018921,-0.4900403320789337,,,,,,
1764808603.754957,,,,,,,-0.03616034984588623,0.03380674123764038,-0.030969321727752686,0.13564284145832062,0.26473498344421387,0.5469635128974915
1764808603.763615,0.1389528358772397,-0.3102852618336677,0.03169160781502724,-0.05028625950217247,0.10274472832679749,-0.4801490902900696,,,,,,
1764808603.764987,,,,,,,-0.0421750545501709,0.02808135747909546,-0.03779107332229614,0.13969139754772186,0.27366748452186584,0.5612655878067017
1764808603.773667,0.08183335681706666,-0.4257616527944803,0.002404723054170608,-0.05996088311076164,0.12637832760810852,-0.48647719621658325,,,,,,
1764808603.775017,,,,,,,-0.05049300193786621,0.007410883903503418,-0.021525025367736816,0.07675397396087646,0.3132351338863373,0.6288483142852783
1764808603.783719,0.15933219156116246,-0.4404302296161651,-0.2002712279319763,-0.06898048520088196,0.18750959634780884,-0.5057046413421631,,,,,,
1764808603.785047,,,,,,,-0.062254488468170166,0.008028626441955566,0.007833480834960938,0.0771758109331131,0.3421647846698761,0.6148890256881714
1764808603.793772,0.245348971542716,-0.3272404882878065,-0.5150584773600101,-0.06200107932090759,0.2639310956001282,-0.5365561246871948,,,,,,
1764808603.795077,,,,,,,-0.06510186195373535,0.03153359889984131,0.018169403076171875,0.09940548241138458,0.32849958539009094,0.5991913080215454
1764808603.803824,0.37587621664106846,-0.21790216169059276,-0.6350292571306229,-0.04921097680926323,0.30920830368995667,-0.5774194002151489,,,,,,
1764808603.805107,,,,,,,-0.05183577537536621,0.05285078287124634,0.01029586885124445,0.13142892718315125,0.30616551637649536,0.61277836561203
1764808603.813876,0.6477849860683084,-0.23291852903664112,-0.6206991184830665,-0.023571185767650604,0.32401204109191895,-0.6058483123779297,,,,,,
1764808603.815137,,,,,,,-0.05040919780731201,0.08278399705886841,0.011358261108398438,0.12725068628787994,0.306942880153656,0.6201414465904236
1764808603.823929,1.0011781527444719,-0.33507191256582736,-0.707737934988737,0.02723606862127781,0.3143748641014099,-0.6001230478286743,,,,,,
1764808603.825168,,,,,,,-0.06595319509506226,0.11551445722579956,0.017998337745666504,0.06883781403303146,0.3028373718261719,0.6013137698173523
1764808603.833981,1.3068287405148147,-0.4766343464195728,-0.6548480563223361,0.08456743508577347,0.27241504192352295,-0.5567420125007629,,,,,,
1764808603.835198,,,,,,,-0.09662270545959473,0.12874358892440796,0.02177751064300537,-0.011596843600273132,0.2989653944969177,0.5305227041244507
1764808603.844034,1.473923382771015,-0.662640317633748,-0.5160778835356236,0.13572834432125092,0.21507158875465393,-0.49545735120773315,,,,,,
1764808603.845228,,,,,,,-0.13272792100906372,0.1387583613395691,0.005471108481287956,-0.03167005255818367,0.3310388922691345,0.4572245180606842
1764808603.854086,1.5238447670206428,-0.8082359525263308,-0.4887573304116726,0.18568195402622223,0.16515344381332397,-0.4301835596561432,,,,,,
1764808603.855258,,,,,,,-0.15496379137039185,0.17518019676208496,-0.014451386407017708,-0.035007525235414505,0.38363900780677795,0.39912259578704834
1764808603.864138,1.5452359300956129,-0.9132447254866362,-0.49710079586505884,0.2462819218635559,0.1390123963356018,-0.36420851945877075,,,,,,
1764808603.865288,,,,,,,-0.16620510816574097,0.21956557035446167,-0.020605798810720444,-0.034924671053886414,0.4119254946708679,0.3317975401878357
1764808603.874191,1.5245321647629142,-1.0014052394986153,-0.5501742144048214,0.30302226543426514,0.15220215916633606,-0.2941340208053589,,,,,,
1764808603.875318,,,,,,,-0.1738147735595703,0.23831534385681152,-0.027356626465916634,-0.009507996030151844,0.42558005452156067,0.24811674654483795
1764808603.884243,1.465070214229822,-1.1148369728893042,-0.6103975046992302,0.3506547808647156,0.21368922293186188,-0.22059321403503418,,,,,,
1764808603.885348,,,,,,,-0.18287324905395508,0.24013054370880127,-0.03437567129731178,0.02410072833299637,0.4471668303012848,0.16396139562129974
1764808603.894295,1.3477546251431107,-1.2111240947335957,-0.6894669497609138,0.3812203109264374,0.31709957122802734,-0.14898648858070374,,,,,,
1764808603.895378,,,,,,,-0.1899275779724121,0.2406156063079834,-0.03486228361725807,0.0805797129869461,0.4904882311820984,0.06892968714237213
1764808603.904348,1.2530369445726275,-1.211018880793452,-0.7783838350981473,0.4059120714664459,0.44821736216545105,-0.08311959356069565,,,,,,
1764808603.905408,,,,,,,-0.19677734375,0.2556442618370056,-0.033944129943847656,0.11622609943151474,0.5382274985313416,-0.025776514783501625
1764808603.9144,1.2378086880415677,-1.1237409948348998,-0.8737713777542113,0.43651083111763,0.587790310382843,-0.02494257502257824,,,,,,
1764808603.915438,,,,,,,-0.19431501626968384,0.28508514165878296,-0.03271687403321266,0.16199812293052673,0.5633504390716553,-0.09661153703927994
1764808603.924452,1.332151397819817,-0.9762257900565862,-0.9767869310706854,0.47842711210250854,0.7224770188331604,0.0360691100358963,,,,,,
1764808603.925468,,,,,,,-0.18642014265060425,0.3025742173194885,-0.030733231455087662,0.23612426221370697,0.5817313194274902,-0.15994210541248322
1764808603.934505,1.5327245313078164,-0.8784609968751669,-1.0817395899295805,0.5215665102005005,0.8315131664276123,0.10017628967761993,,,,,,
1764808603.935498,,,,,,,-0.18077164888381958,0.309917688369751,-0.027951959520578384,0.3028159439563751,0.6032035946846008,-0.2268311232328415
1764808603.944557,1.8028262513130902,-0.7620271590590476,-1.1027227567255495,0.5623882412910461,0.9113438129425049,0.16193418204784393,,,,,,
1764808603.945528,,,,,,,-0.17394274473190308,0.321291983127594,-0.0167849138379097,0.33048468828201294,0.6221530437469482,-0.28343427181243896
1764808603.95461,2.1063570704504846,-0.6478869851380586,-1.1396750615477562,0.5951095819473267,0.9673396944999695,0.22113840281963348,,,,,,
1764808603.955559,,,,,,,-0.15706408023834229,0.3277255892753601,-0.00843561440706253,0.36375367641448975,0.6309172511100769,-0.3227505087852478
1764808603.964662,2.410224866457283,-0.5625029501020908,-1.2123913381904363,0.6355345249176025,1.000254511833191,0.27726688981056213,,,,,,
1764808603.965589,,,,,,,-0.1406998634338379,0.32288873195648193,-0.003964308649301529,0.38567009568214417,0.6344667077064514,-0.3626807630062103
1764808603.974714,2.6858079404830932,-0.4596025475978851,-1.2405325600475072,0.6790687441825867,1.0022528171539307,0.33199530839920044,,,,,,
1764808603.975619,,,,,,,-0.13409757614135742,0.31484830379486084,0.005190126597881317,0.36012452840805054,0.6455544829368591,-0.42129454016685486
1764808603.984767,2.8748978491872546,-0.3859767548948526,-1.1880401562660932,0.7304059863090515,0.9620188474655151,0.38569343090057373,,,,,,
1764808603.985649,,,,,,,-0.13136160373687744,0.3096800446510315,0.006800174713134766,0.30393120646476746,0.6699644923210144,-0.4944313168525696
1764808603.994819,3.003227876502275,-0.33348142850399015,-1.074047866383195,0.77741539478302,0.8899183869361877,0.4447841942310333,,,,,,
1764808603.995679,,,,,,,-0.12191009521484375,0.3098248243331909,0.005450360476970673,0.23927658796310425,0.6780445575714111,-0.5617272853851318
1764808604.004871,3.0265552683368324,-0.266811446288228,-0.9998983420670032,0.8222966194152832,0.8086988925933838,0.5009167194366455,,,,,,
1764808604.005709,,,,,,,-0.11146813631057739,0.32119661569595337,-2.0042061805725098e-05,0.17175307869911194,0.6746194362640381,-0.6439914703369141
1764808604.014924,2.990945610295236,-0.1750911939680576,-1.0337661248773335,0.8700946569442749,0.7509421110153198,0.5635478496551514,,,,,,
1764808604.015739,,,,,,,-0.10310620069503784,0.34623515605926514,0.0016411468386650085,0.12094396352767944,0.6792730689048767,-0.714532732963562
1764808604.024976,2.950909367983043,-0.12411854709982871,-1.1187228744119404,0.915459156036377,0.7330717444419861,0.6342633366584778,,,,,,
1764808604.025769,,,,,,,-0.09888947010040283,0.37086278200149536,0.0012655258178710938,0.08871209621429443,0.6909424662590027,-0.7879153490066528
1764808604.035029,2.8881679573878642,-0.06341770242154599,-1.1343681873112916,0.951991617679596,0.758671224117279,0.7081329822540283,,,,,,
1764808604.0358,,,,,,,-0.09999102354049683,0.3804396390914917,0.0007587671279907227,0.02844555489718914,0.7102706432342529,-0.8645440340042114
1764808604.045081,2.7927111488878724,0.017070377266407012,-1.1985153730511664,0.9871863722801208,0.8245740532875061,0.7784731984138489,,,,,,
1764808604.045829,,,,,,,-0.09938204288482666,0.38086676597595215,0.004233121871948242,-0.07787024229764938,0.7356250286102295,-0.9395959973335266
1764808604.055133,2.662347862179577,0.10952420455813407,-1.2344342431724071,1.0218045711517334,0.9095912575721741,0.8460442423820496,,,,,,
1764808604.05586,,,,,,,-0.08665919303894043,0.3709104657173157,0.010967835783958435,-0.1873472034931183,0.7432544231414795,-1.0176695585250854
1764808604.065185,2.626958276629448,0.19301789580285547,-1.2555080108612775,1.0526132583618164,0.9885028004646301,0.9033623933792114,,,,,,
1764808604.06589,,,,,,,-0.06599307060241699,0.36844927072525024,0.006750702857971191,-0.24783174693584442,0.7425007820129395,-1.106079339981079
1764808604.075237,2.7147487882852555,0.2532704121917486,-1.2029425418436526,1.0771132707595825,1.037682294845581,0.9704708456993103,,,,,,
1764808604.07592,,,,,,,-0.04855787754058838,0.40604960918426514,0.007365219295024872,-0.2818121016025543,0.7268642783164978,-1.1966851949691772
1764808604.085289,2.9714442064896223,0.31568741313815113,-1.1781571332205085,1.0921688079833984,1.0537103414535522,1.0685855150222778,,,,,,
1764808604.08595,,,,,,,-0.03344506025314331,0.471759557723999,-0.0008919388055801392,-0.25454816222190857,0.6860055327415466,-1.2731295824050903
1764808604.095342,3.2918747225016354,0.2840864062160253,-1.2257487593483178,1.0803724527359009,1.0585908889770508,1.1835564374923706,,,,,,
1764808604.095981,,,,,,,-0.0214688777923584,0.5155644416809082,-0.01917766034603119,-0.10537412017583847,0.6392806172370911,-1.3635817766189575
1764808604.105394,3.663439213423431,0.18466215538978575,-1.2447586533099413,1.0429710149765015,1.0505616664886475,1.2985581159591675,,,,,,
1764808604.106011,,,,,,,-0.022633373737335205,0.5387818217277527,-0.0312575101852417,0.12141640484333038,0.6295502185821533,-1.4739596843719482
1764808604.115447,4.041981142142415,0.24918285061717033,-1.2161352739591151,1.0058871507644653,1.0157954692840576,1.4358879327774048,,,,,,
1764808604.116041,,,,,,,-0.023713886737823486,0.5859155654907227,-0.029212817549705505,0.3136223554611206,0.6592907905578613,-1.5845626592636108
1764808604.125499,4.327252958750725,0.6062345398008823,-1.224194077252224,0.9971399307250977,0.9466403722763062,1.611976981163025,,,,,,
1764808604.126071,,,,,,,-0.01558220386505127,0.6346190571784973,-0.002341046929359436,0.4332594573497772,0.6819441914558411,-1.7174557447433472
1764808604.135551,4.357392076426744,1.0513216553121805,-1.389849261289835,1.031437873840332,0.8419377207756042,1.817382574081421,,,,,,
1764808604.136101,,,,,,,0.001499474048614502,0.6291788816452026,0.03565084934234619,0.46012890338897705,0.6783252358436584,-1.9241212606430054
1764808604.145604,4.193510843259096,1.4282377363950014,-1.5119693280488251,1.1022337675094604,0.7178879976272583,2.026019334793091,,,,,,
1764808604.146131,,,,,,,0.024583935737609863,0.598760724067688,0.08623741567134857,0.42114385962486267,0.6937976479530334,-2.1459298133850098
1764808604.155656,4.016853715148568,1.8352905970662832,-1.5547463935017585,1.2179083824157715,0.5869085192680359,2.237962007522583,,,,,,
1764808604.156161,,,,,,,0.06122642755508423,0.6020990014076233,0.13270185887813568,0.31502169370651245,0.6927161812782288,-2.3643240928649902
1764808604.165708,3.9030093093037603,2.3095529536575077,-1.4902362196683883,1.33651864528656,0.4665922224521637,2.469639778137207,,,,,,
1764808604.166191,,,,,,,0.11325138807296753,0.6437651515007019,0.14939843118190765,0.20245547592639923,0.6766359806060791,-2.595759868621826
1764808604.175761,3.7247815708756447,2.6803578583836556,-1.3686428071320056,1.414678931236267,0.3769163489341736,2.6965348720550537,,,,,,
1764808604.176221,,,,,,,0.16490280628204346,0.6427387595176697,0.14882898330688477,0.07662004977464676,0.6909770965576172,-2.874997615814209
1764808604.185813,3.458289858061075,2.8041081566929815,-1.342086224117875,1.4611995220184326,0.3118835687637329,2.875190019607544,,,,,,
1764808604.186251,,,,,,,0.20448482036590576,0.6231296062469482,0.1629655510187149,-0.16154038906097412,0.7283172607421875,-3.1592953205108643
1764808604.195866,3.3396184704512355,2.8662556930482386,-1.2991359940551221,1.5037685632705688,0.24541060626506805,3.0250775814056396,,,,,,
1764808604.196281,,,,,,,0.24999994039535522,0.611962616443634,0.1694110780954361,-0.3205356299877167,0.7700580954551697,-3.372114896774292
1764808604.205918,3.4061282936692234,3.0215345175653696,-1.2558055325031279,1.5335578918457031,0.18444259464740753,3.165114164352417,,,,,,
1764808604.206311,,,,,,,0.2898138165473938,0.591121256351471,0.178153395652771,-0.3755604922771454,0.835643470287323,-3.570068597793579
1764808604.21597,3.479172487092018,3.152521781390905,-1.2946968425638974,1.5728644132614136,0.1296735256910324,3.311948776245117,,,,,,
1764808604.216341,,,,,,,0.3066895008087158,0.591314971446991,0.2087780088186264,-0.4221503734588623,0.9249813556671143,-3.769606590270996
1764808604.226023,3.475011275759339,3.3253006067633626,-1.3201187224596738,1.6410682201385498,0.05950241908431053,3.4793078899383545,,,,,,
1764808604.226371,,,,,,,0.3166402578353882,0.5812376737594604,0.2508561611175537,-0.42876136302948,1.0389968156814575,-3.9686279296875
1764808604.236075,3.357769628691673,3.69634808807373,-1.413002319470793,1.7441418170928955,-0.018627576529979706,3.659327507019043,,,,,,
1764808604.236402,,,,,,,0.32684797048568726,0.5610018372535706,0.29394614696502686,-0.33740055561065674,1.169116735458374,-4.083169937133789
1764808604.246127,3.1372821266829964,4.128029778566956,-1.6625534188784659,1.8561409711837769,-0.061047475785017014,3.8213932514190674,,,,,,
1764808604.246432,,,,,,,0.35508105158805847,0.5581797361373901,0.3179926872253418,-0.12890058755874634,1.253841519355774,-4.201125621795654
1764808604.25618,2.821462027075887,4.328085902443528,-1.8724467538975178,1.9508836269378662,-0.08829928934574127,3.96246075630188,,,,,,
1764808604.256462,,,,,,,0.38655000925064087,0.5812153220176697,0.2993094027042389,0.11604365706443787,1.32953679561615,-4.362609386444092
1764808604.266232,2.4911545524328944,4.404941763108969,-1.8000396893344819,2.0098717212677,-0.09480885416269302,4.089148998260498,,,,,,
1764808604.266492,,,,,,,0.4281744658946991,0.6092919111251831,0.27474308013916016,0.2669786810874939,1.4024509191513062,-4.483664035797119
1764808604.276285,2.2253502373605967,4.384295865443349,-1.6027876630932092,2.0138285160064697,-0.07040766626596451,4.204482555389404,,,,,,
1764808604.276522,,,,,,,0.4826803505420685,0.6070613265037537,0.26003432273864746,0.3408936560153961,1.478841781616211,-4.588583946228027
1764808604.286337,2.0307810204625127,4.412568604725599,-1.4476174135170876,2.0181772708892822,-0.018500791862607002,4.304291725158691,,,,,,
1764808604.286552,,,,,,,0.5338476896286011,0.559535801410675,0.30378106236457825,0.2618784010410309,1.5444773435592651,-4.721743583679199
1764808604.296389,2.106826149266958,4.828104923842847,-1.6568454164952038,2.081890106201172,0.055904701352119446,4.426772117614746,,,,,,
1764808604.296582,,,,,,,0.588898777961731,0.5361015200614929,0.3606328070163727,0.11508707702159882,1.5993013381958008,-4.785786151885986
1764808604.306442,2.2661358367353674,5.291924504613876,-1.6592518931150435,2.1521494388580322,0.06386515498161316,4.579093933105469,,,,,,
1764808604.306612,,,,,,,0.6364730596542358,0.48147398233413696,0.3586512804031372,-0.035468604415655136,1.636695384979248,-4.876249313354492
1764808604.316494,2.091469590181112,5.318256631222367,-1.2405717230141162,2.183903217315674,-0.03497954085469246,4.710949897766113,,,,,,
1764808604.316642,,,,,,,0.651319682598114,0.4030929207801819,0.3230736255645752,-0.14502651989459991,1.685660481452942,-4.979855537414551
1764808604.326547,1.516936010545492,4.854532912041247,-0.8441825874373317,2.179821491241455,-0.14518673717975616,4.743505477905273,,,,,,
1764808604.326672,,,,,,,0.6506733894348145,0.34233397245407104,0.3057290315628052,-0.16287076473236084,1.76117742061615,-4.997133255004883
1764808604.336599,1.0817898588120938,4.3610467995420095,-0.8855503706142306,2.1941752433776855,-0.15858927369117737,4.723167419433594,,,,,,
1764808604.336702,,,,,,,0.6409605741500854,0.33168458938598633,0.322076678276062,-0.0761294737458229,1.8563283681869507,-4.97316837310791
1764808604.346651,0.9637982701599598,4.4749616402745245,-1.219598493090272,2.2547590732574463,-0.08429479598999023,4.707460880279541,,,,,,
1764808604.346732,,,,,,,0.6228559613227844,0.35575246810913086,0.35247063636779785,0.09204127639532089,2.0027129650115967,-4.935281276702881
1764808604.356704,0.8327391101419925,4.988699098163843,-1.3579840504735707,2.3303098678588867,0.0404183603823185,4.723148345947266,,,,,,
1764808604.356762,,,,,,,0.6229297518730164,0.3426661491394043,0.3664281368255615,0.3171713352203369,2.1294124126434326,-4.785256385803223
1764808604.366756,0.48634910022616384,5.352182866221666,-1.2168448104679583,2.399883270263672,0.1897396743297577,4.7342376708984375,,,,,,
1764808604.366792,,,,,,,0.6505060195922852,0.26299309730529785,0.3347975015640259,0.5264465808868408,2.217174768447876,-4.686203956604004
1764808604.376808,-0.13702537494599817,5.358222146385907,-0.9706354227036237,2.4541869163513184,0.31086018681526184,4.678175449371338,,,,,,
1764808604.376823,,,,,,,0.6665385365486145,0.18902552127838135,0.3348241150379181,0.5554537177085876,2.319697618484497,-4.654461860656738
1764808604.386853,,,,,,,0.6878935098648071,0.1766566038131714,0.38594162464141846,0.5508854985237122,2.42663311958313,-4.590707302093506
1764808604.386861,-0.5870896943479776,5.269370142978429,-0.7521814723491669,2.52295184135437,0.3737131953239441,4.588650703430176,,,,,,
1764808604.396883,,,,,,,0.7167884707450867,0.1721280813217163,0.41947877407073975,0.43541935086250305,2.5214762687683105,-4.547219276428223
1764808604.396913,-0.7132949845939874,5.279576479694247,-0.7307453010886907,2.590999126434326,0.38205936551094055,4.523009300231934,,,,,,
1764808604.406913,,,,,,,0.7336257696151733,0.13614553213119507,0.4208716154098511,0.32725971937179565,2.5767171382904053,-4.480280876159668
1764808604.406966,-0.5844190138339996,5.38522355055809,-0.8035574393212794,2.636751651763916,0.41026702523231506,4.499174118041992,,,,,,
1764808604.416943,,,,,,,0.7327234745025635,0.05025935173034668,0.38545799255371094,0.2538059949874878,2.645042896270752,-4.431804180145264
1764808604.417018,-0.5280705191463232,5.278825369065999,-0.8745075830742717,2.6522152423858643,0.45862504839897156,4.457672119140625,,,,,,
1764808604.426973,,,,,,,0.7044897675514221,0.0001552104949951172,0.3641328811645508,0.1634736806154251,2.7233283519744873,-4.295975208282471
1764808604.42707,-0.7011088722378015,4.831121933576465,-0.9457282143317163,2.6461997032165527,0.49531009793281555,4.363667964935303,,,,,,
1764808604.437003,,,,,,,0.6836925745010376,-0.01775461435317993,0.3557001054286957,0.16213251650333405,2.780134677886963,-4.140005588531494
1764808604.437123,-0.7934054631412029,4.409162011152506,-0.9447077852427959,2.6491761207580566,0.48798319697380066,4.231377124786377,,,,,,
1764808604.447033,,,,,,,0.6696639060974121,-0.00975799560546875,0.36976611614227295,0.186990424990654,2.803196907043457,-3.9898581504821777
1764808604.447175,-0.7465496039420366,4.270319357651472,-0.9633756608337163,2.674546718597412,0.45105528831481934,4.090705871582031,,,,,,
1764808604.457063,,,,,,,0.6652354001998901,-0.005986273288726807,0.36111366748809814,0.27686595916748047,2.8617770671844482,-3.8371822834014893
1764808604.457227,-0.6234598153680563,4.469955210289359,-1.0845973174482584,2.7168667316436768,0.4074613153934479,3.96783185005188,,,,,,
1764808604.467093,,,,,,,0.6430522203445435,-0.041358351707458496,0.37946105003356934,0.2235545516014099,2.913278818130493,-3.7827200889587402
1764808604.46728,-0.6099123515307903,4.644463343672454,-1.1813320369295774,2.7718307971954346,0.3466544449329376,3.8604371547698975,,,,,,
1764808604.477123,,,,,,,0.6228797435760498,-0.0056157708168029785,0.4468576908111572,0.08929900079965591,2.935786724090576,-3.64636492729187
1764808604.477333,-0.5307026212155819,4.8055835876941675,-1.4064122735559939,2.838932991027832,0.3112325668334961,3.7695515155792236,,,,,,
1764808604.487153,,,,,,,0.6229497194290161,0.009076416492462158,0.4136251211166382,0.07132632285356522,2.9931342601776123,-3.518561840057373
1764808604.487385,-0.37682606471180913,4.762183129645884,-1.6309316614292562,2.876272678375244,0.30484282970428467,3.7075307369232178,,,,,,
1764808604.497183,,,,,,,0.5988187193870544,-0.03992074728012085,0.35788488388061523,0.01876484416425228,3.0615899562835693,-3.4476282596588135
1764808604.497437,-0.4578747008919716,4.3125744450569155,-1.393643539006263,2.842301845550537,0.2982064187526703,3.643587350845337,,,,,,
1764808604.507214,,,,,,,0.5838035345077515,-0.06645166873931885,0.3216320276260376,0.006135069765150547,3.121692657470703,-3.3619561195373535
1764808604.507489,-0.8133668856739997,3.793471076220274,-0.9939378262273967,2.780109167098999,0.26434245705604553,3.5508155822753906,,,,,,
1764808604.517244,,,,,,,0.5911467671394348,-0.04329884052276611,0.3358861207962036,-0.008713385090231895,3.137186288833618,-3.2965540885925293
1764808604.517542,-1.1730676280617713,3.617686639291048,-0.8639381121344863,2.735687494277954,0.2253856062889099,3.4402554035186768,,,,,,
1764808604.527274,,,,,,,0.6143279075622559,0.04520946741104126,0.35788995027542114,0.049002524465322495,3.1441988945007324,-3.1363539695739746
1764808604.527594,-1.3367968855381012,3.994136271905899,-1.064161263141036,2.734563112258911,0.2525615394115448,3.3483052253723145,,,,,,
1764808604.537304,,,,,,,0.6035089492797852,0.010202944278717041,0.32064831256866455,0.17772507667541504,3.199096441268921,-3.0958735942840576
1764808604.537647,-1.4028618875980376,4.250290715101361,-1.3849199881941079,2.7578554153442383,0.3271731734275818,3.290708303451538,,,,,,
1764808604.547334,,,,,,,0.5437934398651123,-0.03309905529022217,0.3809213638305664,0.15785948932170868,3.271094560623169,-3.105959177017212
1764808604.547699,-1.4397545711874962,4.069674035710096,-1.4912036033958196,2.7809536457061768,0.41780373454093933,3.225133180618286,,,,,,
1764808604.557364,,,,,,,0.5420531034469604,0.04780024290084839,0.47277265787124634,0.13774064183235168,3.298456907272339,-3.0526230335235596
1764808604.557751,-1.3046668863058088,4.111168075615168,-1.8033903149366377,2.80900502204895,0.5010591745376587,3.161217451095581,,,,,,
1764808604.567394,,,,,,,0.5894805192947388,0.1310192346572876,0.47804194688796997,0.2313259392976761,3.3163604736328125,-2.9524710178375244
1764808604.567804,-0.836930716612935,4.513167160028219,-2.0594021347910165,2.8344109058380127,0.5622735023498535,3.1555025577545166,,,,,,
1764808604.577424,,,,,,,0.5830275416374207,0.09532803297042847,0.40762752294540405,0.3746498227119446,3.3546926975250244,-2.937079668045044
1764808604.577856,-0.31167993106245995,4.6130683807164425,-1.9015724567472934,2.821319103240967,0.5917650461196899,3.208118200302124,,,,,,
1764808604.587454,,,,,,,0.5509982109069824,0.03643631935119629,0.3423002362251282,0.42205721139907837,3.3858673572540283,-2.913032293319702
1764808604.587908,-0.12129705993831157,4.268357702189683,-1.40983289565444,2.766465663909912,0.53873610496521,3.267075300216675,,,,,,
1764808604.597484,,,,,,,0.5476479530334473,-0.0028759241104125977,0.2836001515388489,0.4788874685764313,3.3574397563934326,-2.8591091632843018
1764808604.597961,-0.3377016765475273,3.751950148308277,-0.8628104232788085,2.689786911010742,0.3963167071342468,3.2726190090179443,,,,,,
1764808604.607514,,,,,,,0.5624462962150574,-0.03825238347053528,0.2342590093612671,0.550456166267395,3.300225019454956,-2.794114589691162
1764808604.608013,-0.8590618844002484,3.295814400038123,-0.6067593673925846,2.6015231609344482,0.24372877180576324,3.1972885131835938,,,,,,
1764808604.617544,,,,,,,0.5641459822654724,-0.07510513067245483,0.2117249071598053,0.5890147089958191,3.2398552894592285,-2.712348461151123
1764808604.618067,-1.442850783637166,3.0103555364251133,-0.5542763890266418,2.5150227546691895,0.1368476003408432,3.0546257495880127,,,,,,
1764808604.627574,,,,,,,0.5637243390083313,-0.13094201683998108,0.18404218554496765,0.6542990803718567,3.1618683338165283,-2.6112561225891113
1764808604.628118,-1.9023580541670322,2.998532996684313,-0.48941433301568027,2.438967704772949,0.08737588673830032,2.8914871215820312,,,,,,
1764808604.637604,,,,,,,0.5665295124053955,-0.18186578154563904,0.16588392853736877,0.6683898568153381,3.0405781269073486,-2.5210390090942383
1764808604.63817,-2.1748697579234837,3.0707986069500444,-0.5270036205671728,2.3591198921203613,0.10390583425760269,2.7386128902435303,,,,,,
1764808604.647635,,,,,,,0.5771833062171936,-0.20448246598243713,0.14296355843544006,0.6822481751441956,2.8982114791870117,-2.3637208938598633
1764808604.648223,-2.403607201883197,3.0929478949159384,-0.49435105876550073,2.2616384029388428,0.14424607157707214,2.600105047225952,,,,,,
1764808604.657665,,,,,,,0.5753209590911865,-0.236258864402771,0.09074032306671143,0.7218347191810608,2.737084150314331,-2.2555813789367676
1764808604.658275,-2.596231714454293,2.918074143090844,-0.19892799662947652,2.1326630115509033,0.17563284933567047,2.469118595123291,,,,,,
1764808604.667695,,,,,,,0.5636665225028992,-0.2464333176612854,0.050073981285095215,0.7599292397499084,2.5740253925323486,-2.1382253170013428
1764808604.668328,-2.680240954005718,2.8187440002888438,0.10347937143594026,2.002601385116577,0.20438914000988007,2.3178699016571045,,,,,,
1764808604.677725,,,,,,,0.5688509345054626,-0.25096169114112854,-0.009023100137710571,0.7475173473358154,2.383307695388794,-2.030158281326294
1764808604.679008,-2.6531264448478815,2.8722873744279145,0.14811083258390426,1.8585875034332275,0.23873719573020935,2.134453058242798,,,,,,
1764808604.687755,,,,,,,0.5711409449577332,-0.2776543200016022,-0.04717952013015747,0.6563977003097534,2.186727523803711,-1.8617159128189087
1764808604.689061,-2.5257006728962064,2.8606588959544896,0.5186980029061437,1.7105998992919922,0.2437596470117569,1.9617186784744263,,,,,,
1764808604.697785,,,,,,,0.5684100985527039,-0.33012256026268005,-0.08653736114501953,0.5445313453674316,1.9846844673156738,-1.7056411504745483
1764808604.699113,-2.2518965912416578,2.7902555724292992,0.8525266374126076,1.5621567964553833,0.22611621022224426,1.8022555112838745,,,,,,
1764808604.707815,,,,,,,0.5565438270568848,-0.3720428943634033,-0.12058645486831665,0.4334847331047058,1.7842209339141846,-1.5414410829544067
1764808604.709166,-2.1648422849059106,2.7219834157139062,1.172437805725634,1.4000893831253052,0.1867923140525818,1.6293288469314575,,,,,,
1764808604.717845,,,,,,,0.562896728515625,-0.37552013993263245,-0.17714643478393555,0.39405184984207153,1.551307201385498,-1.3572335243225098
1764808604.719218,-2.2808178575605154,2.70276725859046,1.5247200885504484,1.2284536361694336,0.13018496334552765,1.4416502714157104,,,,,,
1764808604.727875,,,,,,,0.5684245228767395,-0.34915971755981445,-0.24088835716247559,0.40623739361763,1.308314323425293,-1.182334065437317
1764808604.72927,-2.3817735557377335,2.5690900250285864,1.7961936814308166,1.0405075550079346,0.07301084697246552,1.2471321821212769,,,,,,
1764808604.737905,,,,,,,0.5577166080474854,-0.31554609537124634,-0.27573972940444946,0.45585477352142334,1.0827975273132324,-0.982069194316864
1764808604.739323,-2.4771204741224646,2.381685877454281,1.8421394400477409,0.8419619798660278,0.05219584330916405,1.04591703414917,,,,,,
1764808604.747935,,,,,,,0.5359345078468323,-0.32443198561668396,-0.2801234722137451,0.46802353858947754,0.87009197473526,-0.7826918363571167
1764808604.749375,-2.5320336753100157,2.3732979883372782,1.7904302955985067,0.657065749168396,0.06116947904229164,0.8334400057792664,,,,,,
1764808604.757965,,,,,,,0.5196776986122131,-0.35115987062454224,-0.263871431350708,0.41753774881362915,0.6497591137886047,-0.5930228233337402
1764808604.759428,-2.527668758098781,2.4416163222819565,1.6957973707020282,0.4844337999820709,0.08883306384086609,0.6165924072265625,,,,,,
1764808604.767995,,,,,,,0.5247299075126648,-0.36615294218063354,-0.2471734881401062,0.32206517457962036,0.4070572257041931,-0.3671853840351105
1764808604.76948,-2.388571253053844,2.5494039123058316,1.632189698666334,0.33428263664245605,0.09028562158346176,0.4083723723888397,,,,,,
1764808604.778025,,,,,,,0.529683530330658,-0.3833685517311096,-0.2447519302368164,0.19723960757255554,0.16899168491363525,-0.15875360369682312
1764808604.779532,-2.198737832506001,2.6135493444800377,1.6503355962097643,0.1886410117149353,0.060894448310136795,0.21155224740505219,,,,,,
1764808604.788056,,,,,,,0.5077226758003235,-0.40556806325912476,-0.24435275793075562,0.07260331511497498,-0.033986736088991165,0.04792879894375801
1764808604.789585,-2.1035987116530537,2.509616091796756,1.7192036729916929,0.043647635728120804,0.019120296463370323,0.01720406860113144,,,,,,
1764808604.798086,,,,,,,0.4886106848716736,-0.406374454498291,-0.24594801664352417,0.005512688774615526,-0.21752141416072845,0.24441522359848022
1764808604.799637,-2.039817144355178,2.4055805477827787,1.7374866409182548,-0.10072126239538193,-0.011810454539954662,-0.17749936878681183,,,,,,
1764808604.808116,,,,,,,0.4802526831626892,-0.36019167304039,-0.2501024603843689,0.014091548509895802,-0.3841753602027893,0.44917088747024536
1764808604.80969,-2.0475544606089593,2.4442478398293255,1.7647852744713424,-0.2510075569152832,-0.00978170894086361,-0.3731418251991272,,,,,,
1764808604.818146,,,,,,,0.4857580065727234,-0.3003692626953125,-0.24707096815109253,0.059092313051223755,-0.5483994483947754,0.6431997418403625
1764808604.819742,-2.097175108346343,2.4934897173821926,1.719714837384224,-0.3929889500141144,0.003003594931215048,-0.561377227306366,,,,,,
1764808604.828176,,,,,,,0.4830636978149414,-0.28801363706588745,-0.23048615455627441,0.08760998398065567,-0.7059099674224854,0.823286235332489
1764808604.829794,-2.0909090336889027,2.436688218230009,1.650970094721019,-0.5265665650367737,0.016813497990369797,-0.7398887276649475,,,,,,
1764808604.838206,,,,,,,0.4677923917770386,-0.2963711619377136,-0.20962780714035034,0.059893667697906494,-0.8426247239112854,1.0047245025634766
1764808604.839847,-2.072768104581535,2.4214678527444597,1.5834794437721371,-0.6440095901489258,0.036407437175512314,-0.9096580743789673,,,,,,
1764808604.848236,,,,,,,0.45820486545562744,-0.2968409061431885,-0.19997453689575195,0.03504779934883118,-0.9644291400909424,1.1831284761428833
1764808604.849899,-2.0170362804874777,2.4871377180069683,1.5182166980057954,-0.7645772099494934,0.04653596878051758,-1.0725127458572388,,,,,,
1764808604.858266,,,,,,,0.458233118057251,-0.3120073676109314,-0.18655633926391602,0.01081649400293827,-1.0879859924316406,1.3396285772323608
1764808604.859951,-1.9960846778735517,2.475581135725975,1.4607681331217288,-0.8721185922622681,0.041886355727910995,-1.2386881113052368,,,,,,
1764808604.868296,,,,,,,0.4579067826271057,-0.323955237865448,-0.16599780321121216,-0.06073075160384178,-1.2214455604553223,1.4918291568756104
1764808604.870004,-2.08062817043215,2.357849074792862,1.3128086917072535,-0.9735689163208008,0.024946605786681175,-1.4130643606185913,,,,,,
1764808604.878326,,,,,,,0.4525555968284607,-0.32187944650650024,-0.1471371054649353,-0.11781640350818634,-1.3848086595535278,1.665100336074829
1764808604.880056,-2.1033301238447426,2.1333698727995154,1.1304837470933795,-1.0601813793182373,0.004952124785631895,-1.5819509029388428,,,,,,
1764808604.888356,,,,,,,0.4278590679168701,-0.3198295533657074,-0.13925433158874512,-0.1475273072719574,-1.5283509492874146,1.840637445449829
1764808604.890109,-2.050837135541439,1.7699077320516108,0.9646654083833098,-1.1503585577011108,-0.012668760493397713,-1.7411036491394043,,,,,,
1764808604.898386,,,,,,,0.38966381549835205,-0.30686476826667786,-0.12878268957138062,-0.14896248281002045,-1.6209157705307007,1.9913759231567383
1764808604.900161,-2.0387325639888645,1.4942150601714848,0.8746049059689044,-1.2548433542251587,-0.019007882103323936,-1.904069423675537,,,,,,
1764808604.908416,,,,,,,0.3687437176704407,-0.2963751256465912,-0.11325281858444214,-0.13585463166236877,-1.6927331686019897,2.1103715896606445
1764808604.910213,-2.1489815756902098,1.4241051666349172,0.8544391930356621,-1.3866924047470093,-0.008739016018807888,-2.0783722400665283,,,,,,
1764808604.918446,,,,,,,0.385747492313385,-0.28981244564056396,-0.09497964382171631,-0.13309027254581451,-1.7857686281204224,2.249974489212036
1764808604.920266,-2.30897982994467,1.5271540376991033,0.8435095104813575,-1.5170173645019531,0.013671218417584896,-2.256700038909912,,,,,,
1764808604.928477,,,,,,,0.42870032787323,-0.2777073383331299,-0.08051818609237671,-0.12527893483638763,-1.9042848348617554,2.3873648643493652
1764808604.930318,-2.419966216009855,1.7181962495148182,0.788847069184482,-1.6224442720413208,0.047094762325286865,-2.4245541095733643,,,,,,
1764808604.938507,,,,,,,0.4588184356689453,-0.25128448009490967,-0.07110613584518433,-0.11411335319280624,-2.012531280517578,2.519423246383667
1764808604.940371,-2.4648691875755784,1.9586533573627471,0.9015208238147199,-1.7214139699935913,0.09080309420824051,-2.569305181503296,,,,,,
1764808604.948537,,,,,,,0.47532325983047485,-0.21258369088172913,-0.07456022500991821,-0.05613977462053299,-2.1124236583709717,2.6538400650024414
1764808604.950423,-2.4193729262918233,2.2784172261595725,0.9875111541807651,-1.8121905326843262,0.13438190519809723,-2.6774344444274902,,,,,,
1764808604.958567,,,,,,,0.4822498559951782,-0.19601351022720337,-0.07721877098083496,0.030584733933210373,-2.213045835494995,2.754879951477051
1764808604.960475,-2.309054356485605,2.4927865375488993,0.8360673777818679,-1.8892687559127808,0.17106188833713531,-2.766711711883545,,,,,,
1764808604.968597,,,,,,,0.47393476963043213,-0.2092261016368866,-0.074832022190094,0.08092938363552094,-2.273439407348633,2.8528096675872803
1764808604.970528,-2.2270266461402177,2.531605220764875,0.7825985301837325,-1.975951910018921,0.18615055084228516,-2.8530843257904053,,,,,,
1764808604.978627,,,,,,,0.47385525703430176,-0.218439519405365,-0.060913294553756714,0.06711824238300323,-2.3047821521759033,2.970458745956421
1764808604.98058,-2.200041024059057,2.59058581752181,0.8778218221887946,-2.0619161128997803,0.19482846558094025,-2.9521870613098145,,,,,,
1764808604.988657,,,,,,,0.49977409839630127,-0.2171793282032013,-0.03430759906768799,0.06023120507597923,-2.3843064308166504,3.1038765907287598
1764808604.990633,-2.173264660814404,2.670417479127645,0.8338939792655408,-2.1373488903045654,0.20610995590686798,-3.060107707977295,,,,,,
1764808604.998687,,,,,,,0.5220011472702026,-0.23247557878494263,-0.016532719135284424,0.05123664811253548,-2.4901187419891357,3.2122480869293213
1764808605.000685,-2.1713836693733928,2.647008546489477,0.7157597672723234,-2.1991891860961914,0.2033197581768036,-3.1737661361694336,,,,,,
1764808605.008717,,,,,,,0.5198417901992798,-0.24256116151809692,0.004901528358459473,0.021015897393226624,-2.538846015930176,3.3179969787597656
1764808605.010737,-2.2194524114936587,2.6013947963058945,0.6201506908200681,-2.255086898803711,0.17674951255321503,-3.2967615127563477,,,,,,
1764808605.018747,,,,,,,0.5239359736442566,-0.22750699520111084,0.041795969009399414,0.012622145935893059,-2.547589063644409,3.426194906234741
1764808605.02079,-2.2789579089075325,2.7443103983342647,0.5645676275469362,-2.3071811199188232,0.14661026000976562,-3.4328114986419678,,,,,,
1764808605.028777,,,,,,,0.5622844099998474,-0.1892198920249939,0.07135099172592163,0.06540997326374054,-2.5523548126220703,3.539506673812866
1764808605.030842,-2.2417285407096146,3.2125685460746287,0.6773966458041221,-2.3550591468811035,0.1496240645647049,-3.555607557296753,,,,,,
1764808605.038807,,,,,,,0.6217819452285767,-0.14904606342315674,0.08811122179031372,0.12806881964206696,-2.572740077972412,3.604430675506592
1764808605.040895,-2.21437817696929,3.873707226973772,0.7312555156331509,-2.381223440170288,0.17702585458755493,-3.6403565406799316,,,,,,
1764808605.048837,,,,,,,0.6718806624412537,-0.11373692750930786,0.1113811731338501,0.19256973266601562,-2.6012020111083984,3.676990032196045
1764808605.050947,-2.174156641218066,4.51031235511899,0.7868447163861244,-2.3999130725860596,0.23578277230262756,-3.681656837463379,,,,,,
1764808605.058866,,,,,,,0.6944190263748169,-0.07893091440200806,0.10555762052536011,0.24472907185554504,-2.649087905883789,3.7792882919311523
1764808605.060999,-2.1306933470666407,4.85207412071228,0.6354886913359165,-2.4016568660736084,0.3354446589946747,-3.6858069896698,,,,,,
1764808605.068897,,,,,,,0.6752111315727234,-0.05573141574859619,0.08689260482788086,0.3789343237876892,-2.631253480911255,3.857123613357544
1764808605.071053,-2.163769102716446,4.701594220909476,0.5149216992378235,-2.4229934215545654,0.46873268485069275,-3.681220054626465,,,,,,
1764808605.078927,,,,,,,0.6275944709777832,-0.05137878656387329,0.08875901997089386,0.5436543226242065,-2.5340754985809326,3.968658447265625
1764808605.081105,-2.3115929350525137,4.327965490934252,0.6053133333027363,-2.477433919906616,0.6086050868034363,-3.732362747192383,,,,,,
1764808605.088957,,,,,,,0.6120498776435852,-0.056568801403045654,0.09494835138320923,0.8477640748023987,-2.505521297454834,4.106568336486816
1764808605.091158,-2.5143442893624304,3.880932502052188,0.5819160911023616,-2.529247283935547,0.7294589281082153,-3.8594465255737305,,,,,,
1764808605.098987,,,,,,,0.608966052532196,-0.07630419731140137,0.09172903001308441,1.3098483085632324,-2.4567668437957764,4.287030220031738
1764808605.10121,-2.6148604270786047,3.5535958599135276,0.432571332809329,-2.5842125415802,0.8572217226028442,-4.0413360595703125,,,,,,
1764808605.109017,,,,,,,0.5967115163803101,-0.059540629386901855,0.12288494408130646,1.7966938018798828,-2.2899672985076904,4.478845596313477
1764808605.111262,-2.65203835735023,3.5857100770547983,0.33391397470235823,-2.644693374633789,0.9827452898025513,-4.2490553855896,,,,,,
1764808605.119047,,,,,,,0.6118614673614502,0.018852055072784424,0.21550112962722778,2.1738598346710205,-2.075584650039673,4.662953853607178
1764808605.121315,-2.6047090354204174,4.147771128608286,0.1532552097350359,-2.6732332706451416,1.1121628284454346,-4.442512035369873,,,,,,
1764808605.129077,,,,,,,0.644309937953949,0.0786251425743103,0.2819802165031433,2.242806911468506,-1.896921992301941,4.776630401611328
1764808605.131367,-2.4458991141676902,5.055841374066472,-0.2800315778672695,-2.6284608840942383,1.233938217163086,-4.595484256744385,,,,,,
1764808605.139107,,,,,,,0.6613593101501465,0.033855438232421875,0.3240319490432739,1.9925336837768555,-1.7093353271484375,4.821564674377441
1764808605.14142,-2.161829659086466,5.929626195824146,-0.43227322664558887,-2.542111396789551,1.2900002002716064,-4.695770263671875,,,,,,
1764808605.149137,,,,,,,0.6692767143249512,-0.06888246536254883,0.34377914667129517,1.5009268522262573,-1.559187650680542,4.8763532638549805
1764808605.151472,-1.646098981553316,6.50959758259952,-0.5153577525675297,-2.4357714653015137,1.3018876314163208,-4.739188194274902,,,,,,
1764808605.159167,,,,,,,0.6885627508163452,-0.10985064506530762,0.33725494146347046,0.9742343425750732,-1.5218820571899414,4.955105781555176
1764808605.161524,-0.9733476042717695,6.617072453412413,-0.7197557050406932,-2.3195643424987793,1.2735694646835327,-4.73864221572876,,,,,,
1764808605.169197,,,,,,,0.70106041431427,-0.09953701496124268,0.31210893392562866,0.6070564985275269,-1.5265905857086182,4.9990386962890625
1764808605.171577,-0.36183307824134825,6.255828573235869,-0.9119090929687023,-2.2169127464294434,1.188910722732544,-4.736416339874268,,,,,,
1764808605.179227,,,,,,,0.693254292011261,-0.0625920295715332,0.30470240116119385,0.3582141697406769,-1.4426794052124023,5.012287616729736
1764808605.181629,0.1719540649861097,5.739063876479864,-0.8383587035894393,-2.1644318103790283,1.0126726627349854,-4.7681708335876465,,,,,,
1764808605.189257,,,,,,,0.6911244988441467,0.033910155296325684,0.33881139755249023,0.2465045154094696,-1.3460497856140137,5.140557289123535
1764808605.191682,0.6407073027670384,5.414123481827974,-0.8352209900856018,-2.1478967666625977,0.8115633130073547,-4.8394775390625,,,,,,
1764808605.199287,,,,,,,0.7090757489204407,0.15061235427856445,0.3290746808052063,0.4173721373081207,-1.3348534107208252,5.262282848358154
1764808605.201734,0.9864514159947633,5.284115292167663,-1.0863783556461333,-2.1391897201538086,0.6214929223060608,-4.918337345123291,,,,,,
1764808605.209317,,,,,,,0.708203911781311,0.22132760286331177,0.30854538083076477,0.7002263069152832,-1.2841649055480957,5.2916741371154785
1764808605.211786,1.161132275596261,5.297141362479329,-1.1154594887018203,-2.1465518474578857,0.4283030927181244,-4.9653472900390625,,,,,,
1764808605.219348,,,,,,,0.687288224697113,0.2391635775566101,0.3090922236442566,0.9120274782180786,-1.1290104389190674,5.292245388031006
1764808605.221839,1.0941887371361254,5.359907322993874,-1.0139116698503494,-2.151355743408203,0.22275657951831818,-4.968271732330322,,,,,,
1764808605.229378,,,,,,,0.6775172352790833,0.23567622900009155,0.34337764978408813,0.9503474235534668,-0.9467955827713013,5.305415153503418
1764808605.231891,0.8016834621429443,5.52629147889316,-0.9975684378147125,-2.1230103969573975,0.038169994950294495,-4.929144382476807,,,,,,
1764808605.239408,,,,,,,0.6892911195755005,0.2480102777481079,0.3703964948654175,0.8696624040603638,-0.8281903862953186,5.324280738830566
1764808605.241944,0.45948739678561684,5.733397521281242,-1.0696306344628332,-2.0584940910339355,-0.08839913457632065,-4.85269021987915,,,,,,
1764808605.249438,,,,,,,0.7004309296607971,0.23682469129562378,0.3523290455341339,0.7788733243942261,-0.7843233346939087,5.280218601226807
1764808605.251996,0.12096738959252834,5.807942182394862,-1.1242214718282222,-1.9952239990234375,-0.13732589781284332,-4.757209777832031,,,,,,
1764808605.259468,,,,,,,0.7010341882705688,0.21835941076278687,0.3198583126068115,0.5802662372589111,-0.7191283106803894,5.187315464019775
1764808605.262048,-0.1272346332937479,5.704646058571338,-1.0646072533428668,-1.976950764656067,-0.15334375202655792,-4.678903579711914,,,,,,
1764808605.269498,,,,,,,0.6952123045921326,0.2334054708480835,0.322431355714798,0.34053775668144226,-0.6474884748458862,5.143100261688232
1764808605.272101,-0.17619944747090338,5.429966363126039,-1.0179355185389518,-2.0039961338043213,-0.15579591691493988,-4.651568412780762,,,,,,
1764808605.279528,,,,,,,0.6862168908119202,0.27088063955307007,0.3163490295410156,0.2544825077056885,-0.580700159072876,5.152710437774658
1764808605.282153,-0.001527355697751045,5.14139258236289,-1.203068798571825,-2.042158365249634,-0.12095323204994202,-4.669823169708252,,,,,,
1764808605.289558,,,,,,,0.6784694194793701,0.3052902817726135,0.3027406930923462,0.2513366937637329,-0.4914703965187073,5.147040843963623
1764808605.292206,0.38859658200442787,5.070543268635869,-1.38340549197793,-2.082338571548462,-0.0775032788515091,-4.697545528411865,,,,,,
1764808605.299588,,,,,,,0.6775458455085754,0.3162227272987366,0.31603097915649414,0.2663979232311249,-0.38177773356437683,5.129634380340576
1764808605.302258,0.8168196564763784,5.303672810074687,-1.4383330139517783,-2.107109546661377,-0.0732579305768013,-4.6959686279296875,,,,,,
1764808605.309618,,,,,,,0.6824893951416016,0.28890007734298706,0.3476610779762268,0.2608569860458374,-0.28527915477752686,5.1030426025390625
1764808605.31231,1.1435849284678696,5.679883373236656,-1.502506503176689,-2.09423565864563,-0.15137723088264465,-4.649991989135742,,,,,,
1764808605.319648,,,,,,,0.6962875723838806,0.2923427224159241,0.3866236209869385,0.12129826843738556,-0.19390235841274261,5.081047058105469
1764808605.322363,1.2801473620772361,6.128228613761067,-1.4869219805538654,-2.0191233158111572,-0.3273274898529053,-4.552406311035156,,,,,,
1764808605.329678,,,,,,,0.7156974673271179,0.3194180130958557,0.4187271296977997,0.029145564883947372,-0.1584777981042862,5.039498805999756
1764808605.332415,1.195511515060067,6.375992829751968,-1.4535773448348044,-1.8685747385025024,-0.5467321872711182,-4.425989627838135,,,,,,
1764808605.339708,,,,,,,0.7140716314315796,0.31263887882232666,0.4273301661014557,-0.049294114112854004,-0.16814826428890228,4.9550957679748535
1764808605.342468,0.956830184713006,6.2864253715515135,-1.3687772471666335,-1.7071927785873413,-0.7441166043281555,-4.320281028747559,,,,,,
1764808605.349738,,,,,,,0.6849265098571777,0.31172096729278564,0.42354875802993774,-0.16053859889507294,-0.10652672499418259,4.875007629394531
1764808605.35252,0.6846621798276901,5.896295588630437,-1.2750304574549198,-1.6017119884490967,-0.8452284932136536,-4.273611068725586,,,,,,
1764808605.359769,,,,,,,0.6461748480796814,0.3337157964706421,0.3809235990047455,-0.1741260588169098,0.032203998416662216,4.837101936340332
1764808605.362572,0.4419868114084005,5.425308308187127,-1.2140892281495035,-1.5960516929626465,-0.841762125492096,-4.287556171417236,,,,,,
1764808605.369799,,,,,,,0.6399232149124146,0.36728256940841675,0.30804869532585144,-0.03589237481355667,0.22520434856414795,4.8286285400390625
1764808605.372625,0.39821372065544125,5.228173040193319,-1.1015467717487364,-1.6738113164901733,-0.78716641664505,-4.319414138793945,,,,,,
1764808605.379829,,,,,,,0.6763434410095215,0.41300785541534424,0.23615452647209167,0.19089177250862122,0.3585229814052582,4.8409743309021
1764808605.382677,0.5729758287996053,5.273977929034829,-1.0210638796925544,-1.7867975234985352,-0.7393349409103394,-4.309675216674805,,,,,,
1764808605.389859,,,,,,,0.7288256287574768,0.43376660346984863,0.1895613670349121,0.42280787229537964,0.39970505237579346,4.847813129425049
1764808605.39273,0.8940940348148345,5.357207416385412,-0.9667207334779202,-1.879630208015442,-0.7403304576873779,-4.247389316558838,,,,,,
1764808605.399889,,,,,,,0.7605466246604919,0.41962140798568726,0.19424045085906982,0.4433786869049072,0.41236624121665955,4.831999778747559
1764808605.402782,1.0351701464563607,5.3852580373495815,-0.9315899449944496,-1.927569031715393,-0.802346408367157,-4.1613311767578125,,,,,,
1764808605.409919,,,,,,,0.7528427839279175,0.3635796904563904,0.2449706792831421,0.2782133221626282,0.42843204736709595,4.779612064361572
1764808605.412834,0.9280793065249919,5.4303614999234675,-0.8869698820233345,-1.9312822818756104,-0.9560957551002502,-4.09096622467041,,,,,,
1764808605.419949,,,,,,,0.7167875170707703,0.2700253129005432,0.2816169261932373,0.09951575845479965,0.5174801349639893,4.693837642669678
1764808605.422887,0.6391290936648846,5.47418310599327,-0.7986173525705933,-1.9134163856506348,-1.1827605962753296,-4.053450584411621,,,,,,
1764808605.429979,,,,,,,0.6888540983200073,0.22056704759597778,0.302922785282135,-0.13855624198913574,0.614785373210907,4.601193428039551
1764808605.432939,0.40809038702547545,5.6026545876055955,-0.5850068967245519,-1.891979694366455,-1.450266718864441,-4.032795429229736,,,,,,
1764808605.440009,,,,,,,0.7007184624671936,0.2500368356704712,0.31549397110939026,-0.35235321521759033,0.6290050745010376,4.492756366729736
1764808605.442991,0.2885346177965402,5.7639861362904306,-0.35706104153394697,-1.8554738759994507,-1.7114591598510742,-4.008826732635498,,,,,,
1764808605.450039,,,,,,,0.7254480719566345,0.2768957018852234,0.3510900139808655,-0.5953791737556458,0.5853495001792908,4.355617523193359
1764808605.453044,0.09523322887718677,5.771888287717104,-0.403295407833904,-1.7919093370437622,-1.8664870262145996,-3.9783718585968018,,,,,,
1764808605.460069,,,,,,,0.7229835391044617,0.29535728693008423,0.36853548884391785,-0.9303033351898193,0.5409420728683472,4.218287944793701
1764808605.463096,-0.09204670779556036,5.74761309363842,-0.5424539954163133,-1.7569068670272827,-1.9054802656173706,-3.93387508392334,,,,,,
1764808605.470099,,,,,,,0.7101824879646301,0.2909717857837677,0.32634586095809937,-1.2314107418060303,0.6033844351768494,4.087911128997803
1764808605.473149,-0.15854542509764433,5.786313703432679,-0.3968612831331789,-1.7647829055786133,-1.9323939085006714,-3.8726489543914795,,,,,,
1764808605.480129,,,,,,,0.6989964246749878,0.2477140724658966,0.32523876428604126,-1.5636738538742065,0.6375908255577087,3.9428579807281494
1764808605.483201,-0.20665596053302288,5.588507404309511,-0.5108733006298541,-1.7688021659851074,-1.9163496494293213,-3.7984209060668945,,,,,,
1764808605.490159,,,,,,,0.6881865859031677,0.25634467601776123,0.35479557514190674,-1.9104008674621582,0.6663734912872314,3.790602922439575
1764808605.493253,-0.4455217075362801,5.5251884860873215,-0.6628643356479704,-1.7689515352249146,-1.8591827154159546,-3.7391672134399414,,,,,,
1764808605.50019,,,,,,,0.6857502460479736,0.2854081988334656,0.3476715087890625,-2.250901699066162,0.7035623788833618,3.646780490875244
1764808605.503306,-0.6248986159995198,5.849166173186898,-0.5106391996130347,-1.7624510526657104,-1.8374028205871582,-3.6809215545654297,,,,,,
1764808605.51022,,,,,,,0.7085056304931641,0.2852662205696106,0.3446272611618042,-2.513768434524536,0.6782980561256409,3.5225610733032227
1764808605.513358,-0.7787620207607746,6.142760996982455,-0.581725244705379,-1.7263432741165161,-1.829787015914917,-3.626703977584839,,,,,,
1764808605.52025,,,,,,,0.7277255058288574,0.27730792760849,0.3818133473396301,-2.5690224170684814,0.6526163816452026,3.4208695888519287
1764808605.523411,-0.9625234279185533,6.269744870385527,-0.9690762105628847,-1.6601159572601318,-1.7680310010910034,-3.575695276260376,,,,,,
1764808605.53028,,,,,,,0.7027319669723511,0.3118495047092438,0.42600876092910767,-2.473304510116577,0.7136214375495911,3.368007183074951
1764808605.533463,-1.2125275317907334,6.424318761503696,-1.3559127971574663,-1.5698862075805664,-1.6004592180252075,-3.555501699447632,,,,,,
1764808605.54031,,,,,,,0.6712471842765808,0.38047611713409424,0.43910861015319824,-2.2724075317382812,0.82435542345047,3.3564798831939697
1764808605.543515,-1.3554983711376785,6.851496126314998,-1.4507273622311652,-1.4914084672927856,-1.3485143184661865,-3.55159068107605,,,,,,
1764808605.55034,,,,,,,0.6914814710617065,0.4162275791168213,0.3837941884994507,-2.0592358112335205,0.9267653822898865,3.3338565826416016
1764808605.553568,-1.2292705767989158,7.365037184849381,-1.2465619033396242,-1.4678770303726196,-1.1135799884796143,-3.5269775390625,,,,,,
1764808605.56037,,,,,,,0.7781400084495544,0.42686378955841064,0.3060278296470642,-1.8876734972000122,0.9290165901184082,3.3046274185180664
1764808605.56362,-0.9410004551574588,7.668990321052074,-0.9867699804246425,-1.4949520826339722,-0.9694414138793945,-3.469287157058716,,,,,,
1764808605.5704,,,,,,,0.8858513236045837,0.40700241923332214,0.2694070339202881,-1.7837965488433838,0.7969142198562622,3.2586417198181152
1764808605.573673,-0.6847247236698866,7.6472735792845485,-1.0333411774635315,-1.5174899101257324,-0.896980345249176,-3.406113386154175,,,,,,
1764808605.58043,,,,,,,0.9200551509857178,0.3729197680950165,0.32075273990631104,-1.7903764247894287,0.6508094668388367,3.2261452674865723
1764808605.583725,-0.6856886002659798,7.320025492212176,-1.523558935816586,-1.4939312934875488,-0.7572011351585388,-3.390927791595459,,,,,,
1764808605.59046,,,,,,,0.8266986012458801,0.3336554765701294,0.4103325605392456,-1.8796733617782593,0.7108059525489807,3.232678174972534
1764808605.593777,-0.6195256177242845,7.108921904620527,-1.8527219165995716,-1.4404581785202026,-0.5347825884819031,-3.430305004119873,,,,,,
1764808605.60049,,,,,,,0.6831744909286499,0.31132328510284424,0.4480555057525635,-2.002382278442383,0.9369754195213318,3.267103672027588
1764808605.60383,-0.3881428103549406,7.106393847447634,-1.8608663523495197,-1.3680503368377686,-0.3089004456996918,-3.5121326446533203,,,,,,
1764808605.61052,,,,,,,0.6264835000038147,0.3112160861492157,0.4219709038734436,-2.011143445968628,1.116440773010254,3.3028435707092285
1764808605.613882,0.02385141570866108,7.010840885096788,-1.8752137343928217,-1.3046953678131104,-0.1571580022573471,-3.5936696529388428,,,,,,
1764808605.62055,,,,,,,0.6717538237571716,0.3633688688278198,0.3518357276916504,-1.8696303367614746,1.1761837005615234,3.3474462032318115
1764808605.623935,0.657547816800326,6.918012963795661,-1.7128583956182002,-1.2894953489303589,-0.12492921203374863,-3.6515636444091797,,,,,,
1764808605.630581,,,,,,,0.7588489651679993,0.4515420198440552,0.27538037300109863,-1.587643027305603,1.1690682172775269,3.4213337898254395
1764808605.633987,1.4260478251352906,7.0024074032723895,-1.6035633236408233,-1.3184950351715088,-0.1834825873374939,-3.6848771572113037,,,,,,
1764808605.640611,,,,,,,0.8239151239395142,0.48565444350242615,0.21367275714874268,-1.2865614891052246,1.0610350370407104,3.5213096141815186
1764808605.644039,2.0996338996753097,6.984688791230321,-1.7764830187886953,-1.330635905265808,-0.27879711985588074,-3.713658571243286,,,,,,
1764808605.650641,,,,,,,0.8259531259536743,0.47948527336120605,0.18203198909759521,-1.1196966171264648,0.9775263071060181,3.5846664905548096
1764808605.654092,2.501674192881584,6.46511663583815,-2.104429609519243,-1.3295868635177612,-0.33507949113845825,-3.7337746620178223,,,,,,
1764808605.660671,,,,,,,0.7531943917274475,0.47734367847442627,0.17503297328948975,-1.0520488023757935,1.0497280359268188,3.6731133460998535
1764808605.664144,2.7683891930580136,6.107777361884713,-2.112011442950368,-1.3252477645874023,-0.3426532447338104,-3.7142584323883057,,,,,,
1764808605.670701,,,,,,,0.6827909350395203,0.45209169387817383,0.19159865379333496,-1.1066381931304932,1.0726250410079956,3.696943998336792
1764808605.674197,2.760971610277891,5.776347020691633,-1.9423861131727693,-1.3012170791625977,-0.3648466467857361,-3.668550729751587,,,,,,
1764808605.680731,,,,,,,0.6353505849838257,0.4215030074119568,0.21414756774902344,-1.2316360473632812,1.0868269205093384,3.653623104095459
1764808605.684249,2.405140841191262,5.3785407117933035,-1.7282663926303385,-1.2711167335510254,-0.4028497040271759,-3.6451573371887207,,,,,,
1764808605.690761,,,,,,,0.6064229011535645,0.4166402816772461,0.19310712814331055,-1.3873919248580933,1.1184061765670776,3.5788304805755615
1764808605.694301,2.193109617360681,5.102015680742263,-1.4252993448555469,-1.2715733051300049,-0.48405396938323975,-3.624743700027466,,,,,,
1764808605.700791,,,,,,,0.5971372127532959,0.4839540123939514,0.15263307094573975,-1.5348114967346191,1.0917692184448242,3.516148567199707
1764808605.704354,2.311389229173958,5.055641467580199,-1.1240367629110812,-1.2910164594650269,-0.6212595105171204,-3.5852973461151123,,,,,,
1764808605.710821,,,,,,,0.6086658835411072,0.5016114711761475,0.14167165756225586,-1.618950366973877,0.9473537802696228,3.44053053855896
1764808605.714406,2.3212924912899733,4.698827678805589,-1.435157306525111,-1.2857595682144165,-0.7510929107666016,-3.567391872406006,,,,,,
1764808605.720851,,,,,,,0.5746583938598633,0.4719500243663788,0.1392378956079483,-1.7638468742370605,0.8643217086791992,3.3592052459716797
1764808605.724459,2.3679265244320034,4.150391247978806,-1.8782728297024964,-1.261370301246643,-0.8218158483505249,-3.573207139968872,,,,,,
1764808605.730881,,,,,,,0.5051007270812988,0.48035866022109985,0.11709380149841309,-1.816268801689148,0.868745744228363,3.333836555480957
1764808605.734511,2.8043150774419305,3.8689071332156657,-1.8998419796928763,-1.2604029178619385,-0.8960461020469666,-3.5510599613189697,,,,,,
1764808605.740911,,,,,,,0.4610663056373596,0.4955991208553314,0.07234394550323486,-1.8450173139572144,0.8515207171440125,3.297685146331787
1764808605.744563,3.2549779472589493,3.6050907770901914,-1.6461124255567787,-1.3090075254440308,-1.0073035955429077,-3.4964165687561035,,,,,,
1764808605.750941,,,,,,,0.46124714612960815,0.5221592783927917,0.05070997029542923,-1.8935598134994507,0.7575111389160156,3.272433042526245
1764808605.754616,3.464467085391283,3.278789030957222,-1.7900380814105272,-1.3585259914398193,-1.0680264234542847,-3.439537525177002,,,,,,
1764808605.760971,,,,,,,0.4649064540863037,0.5341721773147583,0.030773401260375977,-1.9462488889694214,0.6648997068405151,3.246940851211548
1764808605.764668,3.5635651730030773,2.9837749880135056,-2.056014245918393,-1.3920629024505615,-1.050525188446045,-3.385669708251953,,,,,,
1764808605.771002,,,,,,,0.4348723292350769,0.5436440110206604,0.02337789162993431,-1.9610322713851929,0.5801416635513306,3.2426440715789795
1764808605.774721,3.6556910835146903,2.7936791171371933,-2.2298335202544926,-1.3952668905258179,-0.9545720219612122,-3.316133499145508,,,,,,
1764808605.781032,,,,,,,0.3833758234977722,0.5475714206695557,0.0017328225076198578,-1.9177329540252686,0.5929133892059326,3.200568437576294
1764808605.784773,3.678037939879298,2.5868723499566313,-2.205046869522333,-1.4109593629837036,-0.8360688090324402,-3.224562406539917,,,,,,
1764808605.791062,,,,,,,0.3433486819267273,0.623595654964447,-0.028014305979013443,-1.7855156660079956,0.6761768460273743,3.1925652027130127
1764808605.794825,3.6489079992458224,2.7431337557703257,-1.9723188946217298,-1.432590365409851,-0.7343420386314392,-3.1007604598999023,,,,,,
1764808605.801092,,,,,,,0.3523409366607666,0.664659857749939,-0.0423891544342041,-1.558133602142334,0.5736936330795288,3.1417205333709717
1764808605.804878,3.516463522349298,3.025687545591593,-1.9431693725049495,-1.4050977230072021,-0.648280918598175,-2.974456787109375,,,,,,
1764808605.811122,,,,,,,0.3713071942329407,0.6895340085029602,-0.03744697570800781,-1.3931527137756348,0.45518961548805237,3.0204343795776367
1764808605.81493,3.2104274423927066,2.862712905874848,-2.110800898116827,-1.3377381563186646,-0.5210240483283997,-2.906499147415161,,,,,,
1764808605.821152,,,,,,,0.3219236135482788,0.6945523619651794,-0.03628253936767578,-1.2745507955551147,0.43996351957321167,2.9442074298858643
1764808605.824983,3.246671306684613,2.5039970828711984,-2.1113480106055733,-1.283764362335205,-0.3649452328681946,-2.879997730255127,,,,,,
1764808605.831182,,,,,,,0.2534821629524231,0.6898032426834106,-0.05455327033996582,-1.143024206161499,0.47684112191200256,2.902571439743042
1764808605.835035,3.622688393101096,2.1103134068608282,-1.9823755937337875,-1.268646001815796,-0.23644092679023743,-2.850910186767578,,,,,,
1764808605.841212,,,,,,,0.20017391443252563,0.691388726234436,-0.09049880504608154,-1.042681336402893,0.5464401841163635,2.847536325454712
1764808605.845087,4.158834666675329,1.8362480439215898,-1.968815854936838,-1.2853806018829346,-0.14250831305980682,-2.802769899368286,,,,,,
1764808605.851242,,,,,,,0.18925678730010986,0.7191831469535828,-0.14594829082489014,-0.9188395738601685,0.5751985907554626,2.7993528842926025
1764808605.85514,4.81826069843769,1.8593436728268862,-2.0671739378362894,-1.2916581630706787,-0.09288356453180313,-2.711242198944092,,,,,,
1764808605.861272,,,,,,,0.2127200961112976,0.7287915945053101,-0.18546605110168457,-0.8232530951499939,0.5202943086624146,2.7220234870910645
1764808605.865192,5.484986824080348,1.9734306552559135,-2.168905296561122,-1.2638541460037231,-0.10924283415079117,-2.575690984725952,,,,,,
1764808605.871302,,,,,,,0.22909462451934814,0.7546283006668091,-0.19610857963562012,-0.7751353979110718,0.4203546643257141,2.6166622638702393
1764808605.875245,5.834177278369665,2.020095960319042,-2.3256132770985363,-1.1949870586395264,-0.1594342589378357,-2.404895305633545,,,,,,
1764808605.881332,,,,,,,0.21241623163223267,0.7706496715545654,-0.17619353532791138,-0.7444746494293213,0.34905704855918884,2.4688191413879395
1764808605.885297,5.910252217790484,2.033415752880275,-2.425726094710827,-1.0941342115402222,-0.20468935370445251,-2.2230100631713867,,,,,,
1764808605.891362,,,,,,,0.16773277521133423,0.7899748682975769,-0.16370266675949097,-0.7478013038635254,0.3372139632701874,2.2994701862335205
1764808605.895349,5.7679439340054985,2.124753143362701,-2.3221406325519083,-0.9744343161582947,-0.23634201288223267,-2.037424325942993,,,,,,
1764808605.901392,,,,,,,0.12700951099395752,0.7961279153823853,-0.15735244750976562,-0.7260128855705261,0.3121158182621002,2.0841407775878906
1764808605.905402,5.50064733454883,2.1169594207465647,-2.097315393599868,-0.8604459762573242,-0.2604076564311981,-1.8550455570220947,,,,,,
1764808605.911423,,,,,,,0.09391748905181885,0.7817515730857849,-0.16436415910720825,-0.7292481660842896,0.31107211112976074,1.8340996503829956
1764808605.915454,5.281520014977455,1.9153689269095657,-1.8519933100640773,-0.7741446495056152,-0.2859199643135071,-1.6909407377243042,,,,,,
1764808605.921453,,,,,,,0.08328676223754883,0.8342846035957336,-0.1957000494003296,-0.717631995677948,0.2671576738357544,1.6116085052490234
1764808605.925507,5.108976751926541,1.6352274589270352,-1.6524597487568855,-0.7033069133758545,-0.3476530909538269,-1.5303361415863037,,,,,,
1764808605.931483,,,,,,,0.080147385597229,0.852334201335907,-0.21655374765396118,-0.7449012398719788,0.1983540952205658,1.3649836778640747
1764808605.935559,5.220092609590291,1.4654332023233174,-1.5677303782373666,-0.6441736221313477,-0.4351031184196472,-1.356513500213623,,,,,,
1764808605.941513,,,,,,,0.05842328071594238,0.826068639755249,-0.23120427131652832,-0.8540953397750854,0.15205450356006622,1.1119378805160522
1764808605.945611,5.533913059812784,1.4688649303376673,-1.7711498410671949,-0.5545707941055298,-0.49999794363975525,-1.1660586595535278,,,,,,
1764808605.951543,,,,,,,0.033228278160095215,0.8111947774887085,-0.2092321515083313,-0.9352937936782837,0.08705472946166992,0.8680279850959778
1764808605.955664,5.80701162354648,1.5241300137028098,-2.1031120971798893,-0.43888059258461,-0.5087790489196777,-0.9555838108062744,,,,,,
1764808605.961573,,,,,,,0.004960775375366211,0.8045060634613037,-0.21548664569854736,-0.9875482320785522,0.04275011643767357,0.6485496759414673
1764808605.965716,5.922583291575312,1.4510650697529315,-2.289882623025775,-0.326286643743515,-0.4708969295024872,-0.7456873059272766,,,,,,
1764808605.971603,,,,,,,-0.01371091604232788,0.8059471845626831,-0.23501437902450562,-0.9912222027778625,-0.04233734682202339,0.43402302265167236
1764808605.975769,5.8797939511626955,1.151206509387493,-2.3203730383574963,-0.2273242473602295,-0.4151146113872528,-0.5206575393676758,,,,,,
1764808605.981633,,,,,,,-0.03751218318939209,0.8008846640586853,-0.2586934566497803,-0.9987376928329468,-0.13355034589767456,0.22579100728034973
1764808605.985821,5.757594973948597,0.49623336538076396,-2.1776228560239077,-0.19014465808868408,-0.36106735467910767,-0.3489361107349396,,,,,,
1764808605.991663,,,,,,,-0.07158923149108887,0.8143202066421509,-0.28064286708831787,-0.9549241662025452,-0.19238543510437012,0.10001443326473236
1764808605.995873,5.6965901778876775,-0.11514409026652574,-2.128292715665698,-0.18467003107070923,-0.3276432454586029,-0.21574726700782776,,,,,,
1764808606.001693,,,,,,,-0.10558772087097168,0.774729311466217,-0.27981770038604736,-0.8747845888137817,-0.236087366938591,-0.01696890778839588
1764808606.005926,5.785012557706237,-0.46151948713511226,-2.276000812667608,-0.19127413630485535,-0.2901342213153839,-0.1178705096244812,,,,,,
1764808606.011723,,,,,,,-0.13303542137145996,0.7604548931121826,-0.27591830492019653,-0.8224979043006897,-0.26644766330718994,-0.09407248347997665
1764808606.015978,5.940858368456364,-0.46456396939754485,-2.598665079081058,-0.18947269022464752,-0.2319345623254776,-0.019242888316512108,,,,,,
1764808606.021753,,,,,,,-0.14169436693191528,0.7562230825424194,-0.26041871309280396,-0.7247204780578613,-0.3463057577610016,-0.15037530660629272
1764808606.026031,6.097903618124127,-0.47893122518509623,-2.896203672066331,-0.16976822912693024,-0.1716105043888092,0.08598019927740097,,,,,,
1764808606.031783,,,,,,,-0.15731221437454224,0.7174736857414246,-0.24114589393138885,-0.662380039691925,-0.4081382155418396,-0.20755237340927124
1764808606.036083,6.101296183171868,-0.7332450089499354,-3.1598212907493113,-0.15282051265239716,-0.07950832694768906,0.17082327604293823,,,,,,
1764808606.041814,,,,,,,-0.17850738763809204,0.7339357733726501,-0.22878390550613403,-0.5791741013526917,-0.42953458428382874,-0.21686145663261414
1764808606.046136,6.134159172853827,-0.8448305299520492,-3.242982389038801,-0.14921033382415771,0.015039745718240738,0.265133798122406,,,,,,
1764808606.051844,,,,,,,-0.19151800870895386,0.7709937691688538,-0.22007298469543457,-0.42610299587249756,-0.4445907771587372,-0.2591598331928253
1764808606.056188,6.1983934523552655,-0.7726610735371708,-3.1406022110164162,-0.14880746603012085,0.0716768354177475,0.36376094818115234,,,,,,
1764808606.061875,,,,,,,-0.20077699422836304,0.7989354729652405,-0.20537877082824707,-0.2809135913848877,-0.42248308658599854,-0.3294651508331299
1764808606.06624,6.210609959849715,-0.590541003845632,-3.1274533911079168,-0.12382354587316513,0.07729237526655197,0.4677845537662506,,,,,,
1764808606.071905,,,,,,,-0.19869476556777954,0.8192780017852783,-0.17796844244003296,-0.12188615649938583,-0.41857194900512695,-0.4271174967288971
1764808606.076293,6.210393686750531,-0.3184279440179467,-3.211491272231936,-0.056445129215717316,0.02972506918013096,0.5820046663284302,,,,,,
1764808606.081935,,,,,,,-0.1898496150970459,0.8332875370979309,-0.14782319962978363,-0.01795150339603424,-0.39587438106536865,-0.5502687096595764
1764808606.086345,6.160953071755171,0.05327478633075952,-3.2348183718055483,0.03702808916568756,-0.041411690413951874,0.7293733358383179,,,,,,
1764808606.091965,,,,,,,-0.17055743932724,0.8243057727813721,-0.0913626104593277,-0.020465325564146042,-0.3690584599971771,-0.7031432390213013
1764808606.096398,5.944139874345064,0.5719327494874596,-3.211208363637328,0.14413416385650635,-0.12311296164989471,0.8925092220306396,,,,,,
1764808606.101995,,,,,,,-0.14617276191711426,0.7751796841621399,-0.039418935775756836,-0.12773264944553375,-0.3962136507034302,-0.8898353576660156
1764808606.10645,5.420649084204435,0.776890673930943,-3.3030425977259874,0.2626866102218628,-0.19992756843566895,1.0203766822814941,,,,,,
1764808606.112025,,,,,,,-0.1266181468963623,0.7379231452941895,-0.009136363863945007,-0.3068714737892151,-0.4341820776462555,-1.0868394374847412
1764808606.116502,4.954908472242951,0.640721039031446,-3.340787514230609,0.37087905406951904,-0.2641170024871826,1.1215907335281372,,,,,,
1764808606.122055,,,,,,,-0.12312060594558716,0.7426483631134033,0.015371516346931458,-0.4497756063938141,-0.4300943911075592,-1.2830251455307007
1764808606.126555,4.758378768926859,0.5388111088693142,-3.3363661906570194,0.4608355760574341,-0.29868537187576294,1.2354538440704346,,,,,,
1764808606.132085,,,,,,,-0.1329994797706604,0.7631149888038635,0.036631643772125244,-0.5372777581214905,-0.364690363407135,-1.4541655778884888
1764808606.136607,4.6363288447946305,0.7717658782631158,-3.456107837846875,0.5643990635871887,-0.2765010595321655,1.3823708295822144,,,,,,
1764808606.142115,,,,,,,-0.12525498867034912,0.7573924660682678,0.07352912425994873,-0.5361802577972412,-0.3096500039100647,-1.6408631801605225
1764808606.14666,4.420294230541587,1.226845687739551,-3.595436813560128,0.7113016843795776,-0.22412997484207153,1.5394771099090576,,,,,,
1764808606.152145,,,,,,,-0.10222619771957397,0.7216278314590454,0.08035051822662354,-0.5582019090652466,-0.28371959924697876,-1.8583896160125732
1764808606.156712,4.1094045730739825,1.474339562356472,-3.449658807837963,0.8572520017623901,-0.20974485576152802,1.6723524332046509,,,,,,
1764808606.162175,,,,,,,-0.07240450382232666,0.7398791909217834,0.07343429327011108,-0.553461492061615,-0.26581037044525146,-2.040886640548706
1764808606.166764,3.924561800420284,1.3650231553301215,-3.1114187866300345,0.9593997001647949,-0.24730688333511353,1.7821491956710815,,,,,,
1764808606.172206,,,,,,,-0.04508078098297119,0.7727447748184204,0.06587804853916168,-0.4708244502544403,-0.22813250124454498,-2.1978461742401123
1764808606.176817,3.930229909184575,1.254214463919401,-3.0182430748045443,1.0491611957550049,-0.2742840349674225,1.8867591619491577,,,,,,
1764808606.182236,,,,,,,-0.03021681308746338,0.7710075378417969,0.06219311058521271,-0.3882214426994324,-0.21070371568202972,-2.363157033920288
1764808606.186869,4.0260780550897115,1.2143357502564787,-3.145342099019885,1.1511173248291016,-0.26647910475730896,2.008457660675049,,,,,,
1764808606.192266,,,,,,,-0.02948307991027832,0.7391075491905212,0.08145476877689362,-0.3602629005908966,-0.10175593197345734,-2.5069680213928223
1764808606.196922,4.101435786151885,1.4150778105705977,-3.1496997097074986,1.2564098834991455,-0.20216520130634308,2.1414077281951904,,,,,,
1764808606.202296,,,,,,,-0.008737444877624512,0.6884591579437256,0.09686262905597687,-0.31191879510879517,0.020867453888058662,-2.624173402786255
1764808606.206974,4.089652409377694,2.0688485930502414,-2.8965543852001425,1.3714696168899536,-0.1848975419998169,2.3012855052948,,,,,,
1764808606.212326,,,,,,,0.049458086490631104,0.6117767691612244,0.08594729006290436,-0.39076322317123413,0.06313394755125046,-2.8065340518951416
1764808606.217026,3.855494986195862,2.485003044065833,-2.3256840042471882,1.4668434858322144,-0.31435859203338623,2.442957878112793,,,,,,
1764808606.222356,,,,,,,0.1194109320640564,0.5834140777587891,0.09790052473545074,-0.5367861986160278,0.05381475389003754,-2.960205554962158
1764808606.227079,3.3849826297879217,2.4729654002696275,-2.02377435657084,1.5311779975891113,-0.5062854290008545,2.519993543624878,,,,,,
1764808606.232386,,,,,,,0.17783105373382568,0.5354334712028503,0.1124534010887146,-0.6647549271583557,0.007461101748049259,-3.0860695838928223
1764808606.237131,2.989013180927932,2.310160856422782,-2.0649697057902814,1.5865052938461304,-0.7000443935394287,2.5517821311950684,,,,,,
1764808606.242416,,,,,,,0.19290894269943237,0.45997077226638794,0.13805140554904938,-0.8496328592300415,-0.02319055050611496,-3.2362406253814697
1764808606.247184,2.710693083153665,2.091356192934513,-2.099004661861062,1.6389446258544922,-0.8428891897201538,2.546614170074463,,,,,,
1764808606.252446,,,,,,,0.17425477504730225,0.4355008602142334,0.1776532530784607,-1.0265673398971558,0.027300318703055382,-3.325425148010254
1764808606.257236,2.4400366518750785,2.203003380995989,-2.2328157509356736,1.7311452627182007,-0.8285775780677795,2.5517773628234863,,,,,,
1764808606.262476,,,,,,,0.16325384378433228,0.4248696565628052,0.18568533658981323,-1.0851616859436035,0.0940798819065094,-3.3989367485046387
1764808606.267288,2.2951646550819276,2.51117442715466,-2.204868005824089,1.8459054231643677,-0.7089614272117615,2.6084320545196533,,,,,,
1764808606.272506,,,,,,,0.14959055185317993,0.40551871061325073,0.12641632556915283,-1.0695390701293945,0.1754991114139557,-3.4903244972229004
1764808606.277341,2.100899097305536,2.340121694922447,-1.755961039763689,1.8967357873916626,-0.6176567077636719,2.667505979537964,,,,,,
1764808606.282536,,,,,,,0.14621061086654663,0.4486306309700012,0.07473352551460266,-0.875243604183197,0.2457042932510376,-3.4980058670043945
1764808606.287393,1.9264739660307764,1.6964771696597336,-1.5264514423877,1.894093632698059,-0.5470187664031982,2.688889741897583,,,,,,
1764808606.292567,,,,,,,0.15746474266052246,0.5157728791236877,0.02601182460784912,-0.44234123826026917,0.4123723804950714,-3.503981590270996
1764808606.297446,2.099023658822477,1.380363640064001,-1.2064590255320071,1.8492658138275146,-0.49688008427619934,2.7210636138916016,,,,,,
1764808606.302597,,,,,,,0.18814784288406372,0.5876098871231079,-0.034868329763412476,0.127605602145195,0.6302104592323303,-3.5692195892333984
1764808606.307498,2.6903800707042214,1.9975579652965068,-0.4449690420895815,1.7761133909225464,-0.583604097366333,2.8350024223327637,,,,,,
1764808606.312627,,,,,,,0.27699941396713257,0.6124160289764404,-0.10028916597366333,0.6439891457557678,0.7238211035728455,-3.738231897354126
1764808606.31755,3.1792870387196537,3.113249509188533,0.24460721326470375,1.7314361333847046,-0.9004285931587219,3.036609172821045,,,,,,
1764808606.322657,,,,,,,0.40528202056884766,0.5913463234901428,-0.06631159782409668,0.7850807905197144,0.6008884906768799,-3.9621574878692627
1764808606.327603,2.887550117750466,4.189662351137399,-0.0003524666994810104,1.822953701019287,-1.267404317855835,3.235774517059326,,,,,,
1764808606.332687,,,,,,,0.5218985676765442,0.4946545362472534,0.11504217982292175,0.5008547902107239,0.31784242391586304,-4.074488162994385
1764808606.337655,1.5169915401250122,4.963868608289957,-1.2496277206510304,2.1292622089385986,-1.2892268896102905,3.3467679023742676,,,,,,
1764808606.342717,,,,,,,0.5486886501312256,0.20960089564323425,0.320259690284729,-0.1289103776216507,0.042544521391391754,-4.117682933807373
1764808606.347708,-0.2742965413466096,5.028194073206186,-2.4257418768018484,2.4997260570526123,-0.8697568774223328,3.3361430168151855,,,,,,
1764808606.352747,,,,,,,0.41867780685424805,-0.05888628959655762,0.39140015840530396,-0.8725521564483643,0.023839276283979416,-4.144033908843994
1764808606.35776,-1.5522877483032642,3.8008769685626027,-2.1785721195727588,2.675480842590332,-0.35905537009239197,3.176262855529785,,,,,,
1764808606.362777,,,,,,,0.2233460545539856,-0.08061100542545319,0.32632768154144287,-1.2739951610565186,0.5501273274421692,-4.09361457824707
1764808606.367812,-1.5002796209074556,2.2816063775897026,-0.4766384380728006,2.5374491214752197,-0.08018723875284195,2.958350658416748,,,,,,
1764808606.372807,,,,,,,0.1887071132659912,0.1758432686328888,0.14004303514957428,-0.9701688885688782,1.1554595232009888,-3.9820468425750732
1764808606.377865,-0.4428306418213993,2.479478727686405,1.1383631021663545,2.278395652770996,-0.040124520659446716,2.847874641418457,,,,,,
1764808606.382837,,,,,,,0.43500542640686035,0.4436180889606476,-0.13249348104000092,-0.22049623727798462,1.1706056594848633,-4.072165489196777
1764808606.387917,0.8389929829049855,3.611977613994479,1.624259782449901,2.1144981384277344,-0.18840239942073822,2.9593091011047363,,,,,,
1764808606.392867,,,,,,,0.688790500164032,0.553849458694458,-0.18951845169067383,0.6196240186691284,0.7451226115226746,-4.233738422393799
1764808606.39797,1.5759353120028972,3.980698113662004,1.3025821889862417,2.0684800148010254,-0.3566584289073944,3.2064404487609863,,,,,,
1764808606.402897,,,,,,,0.7507818937301636,0.5097854137420654,-0.11132287979125977,1.248265027999878,0.47436651587486267,-4.25453519821167
1764808606.408022,1.4634819221250712,3.6247710445940493,0.49592532234489917,2.102160930633545,-0.4308170676231384,3.4216861724853516,,,,,,
1764808606.412927,,,,,,,0.6260876059532166,0.38350391387939453,-0.013042941689491272,1.5045106410980225,0.44522565603256226,-4.206623554229736
1764808606.418075,0.7973849612314253,3.22843773085773,-0.11776420963704586,2.1888139247894287,-0.4074728488922119,3.5282647609710693,,,,,,
1764808606.422958,,,,,,,0.4612452983856201,0.21567341685295105,0.10054033994674683,1.447468876838684,0.4883475601673126,-4.20278263092041
1764808606.428127,0.048111266087740655,2.973239565473795,-0.6307131474971771,2.3147244453430176,-0.2571866512298584,3.5432381629943848,,,,,,
1764808606.432988,,,,,,,0.37116336822509766,0.054969750344753265,0.18769598007202148,1.2667163610458374,0.5824000239372253,-4.184852123260498
1764808606.438179,-0.5613095755990595,2.838790763017535,-0.6703247346565127,2.362027645111084,-0.08004192262887955,3.5018184185028076,,,,,,
1764808606.443018,,,,,,,0.3753293752670288,-0.005167469382286072,0.18279337882995605,1.1035023927688599,0.797015368938446,-4.162847995758057
1764808606.448232,-0.9107680331747978,3.2391531861394642,0.3572454581901431,2.24194598197937,-0.011478841304779053,3.413517713546753,,,,,,
1764808606.453048,,,,,,,0.5050981044769287,0.05152741074562073,0.1258477419614792,1.0646835565567017,0.8338119983673096,-4.117393970489502
1764808606.458284,-0.9304447204820812,4.032008614182472,1.045423537184298,2.104870557785034,-0.02532097138464451,3.3117830753326416,,,,,,
1764808606.463078,,,,,,,0.6909720301628113,0.08087904751300812,0.05596059560775757,1.0763421058654785,0.6505417823791504,-4.107962608337402
1764808606.468337,-0.7523086058601737,4.659108247357606,1.2842287861719728,2.0207395553588867,-0.09735547751188278,3.238060474395752,,,,,,
1764808606.473108,,,,,,,0.8084490299224854,0.05283753573894501,0.05491912364959717,1.0885065793991089,0.427084743976593,-4.050576686859131
1764808606.478389,-0.7023012968927621,4.950709266987443,1.3521359089672564,1.9786639213562012,-0.14646786451339722,3.1877799034118652,,,,,,
1764808606.483138,,,,,,,0.8372294306755066,-0.020856738090515137,0.06095820665359497,1.0193195343017578,0.23223961889743805,-3.938734531402588
1764808606.488441,-0.779831695818901,4.8808594856917855,1.1913628709480166,1.9680943489074707,-0.13441599905490875,3.1397502422332764,,,,,,
1764808606.493168,,,,,,,0.7817603945732117,-0.103478342294693,0.08289552479982376,0.8853099346160889,0.12085051089525223,-3.8067939281463623
