timestamp,phone_accel_x,phone_accel_y,phone_accel_z,phone_gyro_x,phone_gyro_y,phone_gyro_z,watch_accel_x,watch_accel_y,watch_accel_z,watch_gyro_x,watch_gyro_y,watch_gyro_z
1764808618.370959,-0.42017683839946984,0.22958909235298633,0.18138357211053371,-0.088807113468647,0.17425569891929626,-0.3651464581489563,,,,,,
1764808618.37882,,,,,,,0.028094470500946045,-0.02092111110687256,-0.0027929842472076416,0.13153591752052307,-0.09673241525888443,0.4092729687690735
1764808618.381011,-0.3411129462957382,0.25655776329934593,0.18856676161289215,-0.08689789474010468,0.17492733895778656,-0.3522229492664337,,,,,,
1764808618.38885,,,,,,,0.0320248007774353,-0.02292102575302124,-0.006189122796058655,0.16836540400981903,-0.0899573341012001,0.39802297949790955
1764808618.391063,-0.2706266206622124,0.2508884854912758,0.20674131899522616,-0.08839377015829086,0.15538732707500458,-0.3445594608783722,,,,,,
1764808618.398881,,,,,,,0.03197067975997925,-0.025209367275238037,-0.0072492510080337524,0.20150737464427948,-0.08972830325365067,0.3923741579055786
1764808618.401115,-0.23879092820137737,0.22029051813185213,0.21899523589061573,-0.08862040191888809,0.12552742660045624,-0.34772172570228577,,,,,,
1764808618.408911,,,,,,,0.031183958053588867,-0.02604895830154419,-0.004256382584571838,0.19605882465839386,-0.08313964307308197,0.39164096117019653
1764808618.411168,-0.22903847273290157,0.1983680246591568,0.1849123307585716,-0.0912420004606247,0.10593080520629883,-0.3562384843826294,,,,,,
1764808618.418941,,,,,,,0.029891550540924072,-0.03261798620223999,0.0004928112030029297,0.16774381697177887,-0.07273786514997482,0.39970317482948303
1764808618.421221,-0.20574673673361538,0.16415946558713912,0.1325742590223439,-0.09749110788106918,0.09532556682825089,-0.3679177761077881,,,,,,
1764808618.428971,,,,,,,0.030375242233276367,-0.043607473373413086,0.0004492849111557007,0.1308116316795349,-0.0671529471874237,0.39386072754859924
1764808618.431273,-0.16327859109938145,0.16804419806599616,0.1284422555178404,-0.10547678172588348,0.0835237056016922,-0.37699297070503235,,,,,,
1764808618.439001,,,,,,,0.036136507987976074,-0.04679405689239502,-0.004517689347267151,0.09497081488370895,-0.061014894396066666,0.38725316524505615
1764808618.441324,-0.09198182586580514,0.24261808527410028,0.17802257124483584,-0.11792732030153275,0.046728942543268204,-0.3770669996738434,,,,,,
1764808618.449031,,,,,,,0.04284244775772095,-0.03692364692687988,-0.004726782441139221,0.06674770265817642,-0.07547532767057419,0.3892212212085724
1764808618.451378,-0.01231821430325508,0.2790817297965288,0.23449907622635363,-0.12264341861009598,-0.010766780935227871,-0.3667686879634857,,,,,,
1764808618.459062,,,,,,,0.04468625783920288,-0.020979702472686768,-0.005819037556648254,0.05841344594955444,-0.0921160876750946,0.38015779852867126
1764808618.46143,-0.034086686258018015,0.3064268328398466,0.20708032342493532,-0.12616892158985138,-0.05651562660932541,-0.35586464405059814,,,,,,
1764808618.469091,,,,,,,0.037658512592315674,-0.015448510646820068,-0.003967165946960449,0.03911469876766205,-0.09799554944038391,0.37203076481819153
1764808618.471482,-0.08362433188706636,0.293576119095087,0.10960547136710956,-0.12126629799604416,-0.081733837723732,-0.35605838894844055,,,,,,
1764808618.479121,,,,,,,0.03165251016616821,-0.028380930423736572,0.005196228623390198,0.014476201497018337,-0.09655078500509262,0.3729088306427002
1764808618.481534,-0.1220493396103382,0.25529694958329197,0.09556056113541125,-0.10938806086778641,-0.09226690977811813,-0.3618054986000061,,,,,,
1764808618.489151,,,,,,,0.026972413063049316,-0.03299814462661743,0.014995694160461426,-0.0017525600269436836,-0.0912441685795784,0.38025733828544617
1764808618.491586,-0.12799451175034046,0.2148030266314745,0.08661095561557448,-0.09934432059526443,-0.08428479731082916,-0.36855751276016235,,,,,,
1764808618.499181,,,,,,,0.02086961269378662,-0.019938945770263672,0.016492128372192383,0.017053883522748947,-0.08432208001613617,0.3899773359298706
1764808618.501638,-0.16285948890447616,0.1745043339908123,0.032815652542049066,-0.09353703260421753,-0.05165095254778862,-0.3728252351284027,,,,,,
1764808618.509211,,,,,,,0.015814006328582764,-0.0008759498596191406,0.009652510285377502,0.02330033667385578,-0.0773635134100914,0.38643380999565125
1764808618.511692,-0.13600567650943993,0.1852741498082876,0.0003250033038202673,-0.09084043651819229,-0.006919681094586849,-0.3722890615463257,,,,,,
1764808618.519241,,,,,,,0.015265285968780518,0.014763891696929932,0.005246639251708984,0.024712610989809036,-0.07072851061820984,0.38355547189712524
1764808618.521744,-0.07975070532411337,0.19389584768116472,-0.0189531222730875,-0.08097608387470245,0.020997971296310425,-0.36793291568756104,,,,,,
1764808618.529271,,,,,,,0.017581820487976074,0.010941803455352783,0.004464983940124512,0.014118373394012451,-0.0718076229095459,0.37838801741600037
1764808618.531796,-0.033496319149434566,0.14950900894403457,0.023280931477481497,-0.06899524480104446,0.03721783310174942,-0.3610694706439972,,,,,,
1764808618.539301,,,,,,,0.014377057552337646,0.0012877583503723145,0.009078368544578552,-0.017808668315410614,-0.06497395038604736,0.35600441694259644
1764808618.541848,0.03707651572376489,0.07931669782102108,0.10619711509519256,-0.06864876300096512,0.03241375833749771,-0.3555023968219757,,,,,,
1764808618.549332,,,,,,,0.006824314594268799,0.00784367322921753,0.015154123306274414,-0.029059162363409996,-0.04947035759687424,0.3403204381465912
1764808618.551901,0.08575579095780848,0.028060557836294173,0.12056758575313724,-0.07190918177366257,0.015021776780486107,-0.3535813093185425,,,,,,
1764808618.559362,,,,,,,0.00115126371383667,0.02300351858139038,0.014225825667381287,-0.030499665066599846,-0.04101934656500816,0.3276144862174988
1764808618.561953,0.14340893850326536,0.03603928163051605,-0.009808268175786361,-0.06295696645975113,0.005614426918327808,-0.3464302122592926,,,,,,
1764808618.569392,,,,,,,-0.0031396150588989258,0.037968218326568604,0.015474662184715271,-0.024488527327775955,-0.03993251174688339,0.3188401162624359
1764808618.572006,0.2520382400482893,0.07583879257738589,-0.10889292091727257,-0.0472378134727478,0.007035408169031143,-0.33209988474845886,,,,,,
1764808618.579422,,,,,,,-0.0072062015533447266,0.03899616003036499,0.022420629858970642,-0.0346468910574913,-0.027739496901631355,0.3107859194278717
1764808618.582057,0.3745747786536813,0.160487499076128,-0.19846914694607257,-0.03150146082043648,0.012919396162033081,-0.3146628141403198,,,,,,
1764808618.589452,,,,,,,-0.013640940189361572,0.037718385457992554,0.04102802276611328,-0.05263972654938698,-0.008987112902104855,0.292510062456131
1764808618.592111,0.46664925123900175,0.2202443409025669,-0.27003449998795986,-0.004191475920379162,-0.0041772136464715,-0.293862909078598,,,,,,
1764808618.599482,,,,,,,-0.018159210681915283,0.04454854130744934,0.054473280906677246,-0.08571778982877731,0.009001207537949085,0.2640853226184845
1764808618.602163,0.5569432701483369,0.19300269823372362,-0.2850304090678692,0.04079330712556839,-0.0600961372256279,-0.26655513048171997,,,,,,
1764808618.609512,,,,,,,-0.019456923007965088,0.0527397096157074,0.061074838042259216,-0.13494057953357697,0.02549229934811592,0.21553251147270203
1764808618.612215,0.6118088328018784,0.16757833411991596,-0.27811259250342846,0.08101747930049896,-0.13248760998249054,-0.2338239848613739,,,,,,
1764808618.619542,,,,,,,-0.02358001470565796,0.05422678589820862,0.05869580805301666,-0.1962129920721054,0.04498983547091484,0.15749184787273407
1764808618.622267,0.648915743663907,0.04860767130255699,-0.20962065555751322,0.10088732093572617,-0.19792520999908447,-0.2049475908279419,,,,,,
1764808618.629572,,,,,,,-0.027206778526306152,0.06511077284812927,0.060435548424720764,-0.25696948170661926,0.0684237852692604,0.11421248316764832
1764808618.632319,0.6265645033851266,-0.10008943673670291,-0.19455694193840026,0.10943159461021423,-0.23609794676303864,-0.1768105924129486,,,,,,
1764808618.639602,,,,,,,-0.028514981269836426,0.07525691390037537,0.053869009017944336,-0.2910845875740051,0.08186741918325424,0.08167584240436554
1764808618.642371,0.616975714045763,-0.1570060867011547,-0.28610008412599564,0.11635314673185349,-0.2328994870185852,-0.14711341261863708,,,,,,
1764808618.649632,,,,,,,-0.03645288944244385,0.08711928129196167,0.047643765807151794,-0.33596280217170715,0.08727364242076874,0.03227154165506363
1764808618.652424,0.6354954133376479,-0.16475743148028849,-0.4029173683017492,0.12237434834241867,-0.2091246247291565,-0.11156950891017914,,,,,,
1764808618.659662,,,,,,,-0.04536646604537964,0.10018396377563477,0.04130467772483826,-0.3640223741531372,0.09861284494400024,-0.009109186008572578
1764808618.662477,0.6555325314551591,-0.2347042434096336,-0.48209027373790736,0.12724873423576355,-0.2132226973772049,-0.08154396712779999,,,,,,
1764808618.669692,,,,,,,-0.05179274082183838,0.10746762156486511,0.043153032660484314,-0.36610203981399536,0.09464260935783386,-0.0427841916680336
1764808618.672528,0.7230921559870243,-0.333379137173295,-0.5259925438284874,0.13090786337852478,-0.23259082436561584,-0.05532409995794296,,,,,,
1764808618.679722,,,,,,,-0.06010997295379639,0.1167612373828888,0.05771327018737793,-0.3697659969329834,0.09128542244434357,-0.07966923713684082
1764808618.682581,0.8678659531027079,-0.33037527918219567,-0.6898217545479536,0.15064029395580292,-0.2250269204378128,-0.03094952180981636,,,,,,
1764808618.689753,,,,,,,-0.07180947065353394,0.11534085869789124,0.07931409776210785,-0.39733725786209106,0.09395577758550644,-0.124802365899086
1764808618.692634,1.0171458294659852,-0.17300737343132494,-0.9031266515761613,0.19105523824691772,-0.19402477145195007,-0.004105588886886835,,,,,,
1764808618.699783,,,,,,,-0.08117246627807617,0.11619028449058533,0.10154712200164795,-0.45950770378112793,0.10934644937515259,-0.14830689132213593
1764808618.702686,1.1702455563783645,-0.12527531591951846,-1.0007681106388568,0.2571045458316803,-0.18517614901065826,0.03504367545247078,,,,,,
1764808618.709813,,,,,,,-0.09055405855178833,0.1175721287727356,0.11676859855651855,-0.5176445245742798,0.1391642689704895,-0.1550188511610031
1764808618.712739,1.2905755248501896,-0.25055764610171316,-1.0116583379656077,0.3214278817176819,-0.18675115704536438,0.07792244106531143,,,,,,
1764808618.719843,,,,,,,-0.10028868913650513,0.12003752589225769,0.12756991386413574,-0.567390501499176,0.18353760242462158,-0.17341889441013336
1764808618.72279,1.337438690572977,-0.3981739731669426,-0.9848901580274104,0.3665746748447418,-0.17421719431877136,0.10581653565168381,,,,,,
1764808618.729873,,,,,,,-0.11022233963012695,0.13955610990524292,0.13804325461387634,-0.5760787129402161,0.25595346093177795,-0.20405243337154388
1764808618.732842,1.38525199662745,-0.45588498837947844,-0.9519459198027849,0.4069257974624634,-0.14400608837604523,0.1261867731809616,,,,,,
1764808618.739903,,,,,,,-0.11807096004486084,0.16559702157974243,0.13975057005882263,-0.540288507938385,0.3372291624546051,-0.24070872366428375
1764808618.742896,1.4469696171328426,-0.3581710486024618,-0.9137573511838912,0.45747071504592896,-0.10447359830141068,0.15863925218582153,,,,,,
1764808618.749933,,,,,,,-0.1141614317893982,0.20621728897094727,0.12096330523490906,-0.5064994692802429,0.4056319296360016,-0.3025469183921814
1764808618.752948,1.5367337669491767,-0.17945231178700924,-0.7878390611857176,0.504237711429596,-0.09519683569669724,0.22147008776664734,,,,,,
1764808618.759963,,,,,,,-0.1019328236579895,0.2485765814781189,0.08913195133209229,-0.4207880198955536,0.43837547302246094,-0.3671850562095642
1764808618.763,1.609673623214662,-0.17776421256959438,-0.6570311725150794,0.5325774550437927,-0.12141326069831848,0.30944254994392395,,,,,,
1764808618.769993,,,,,,,-0.09995198249816895,0.2694171369075775,0.0833154171705246,-0.3218058943748474,0.4672481417655945,-0.4575042426586151
1764808618.773052,1.6212398501068352,-0.32364801675379273,-0.7575135540921241,0.5588108897209167,-0.11573037505149841,0.3871249556541443,,,,,,
1764808618.780023,,,,,,,-0.11004519462585449,0.285292387008667,0.1086115837097168,-0.30642902851104736,0.5233606696128845,-0.5764050483703613
1764808618.783104,1.6309443747803567,-0.3179986126899719,-1.021842462849617,0.6194888949394226,-0.06095527112483978,0.4395221173763275,,,,,,
1764808618.790053,,,,,,,-0.12020808458328247,0.2888038158416748,0.16195088624954224,-0.3394133448600769,0.5991870164871216,-0.6506648659706116
1764808618.793157,1.752215715755522,-0.10430676217079161,-1.2694319067955016,0.7262101173400879,0.022671790793538094,0.4964207410812378,,,,,,
1764808618.800083,,,,,,,-0.12321716547012329,0.2652861475944519,0.19140374660491943,-0.39281535148620605,0.680596649646759,-0.696501612663269
1764808618.80321,1.95142077576071,0.010346621969342232,-1.4300100067645312,0.8449320197105408,0.11989235132932663,0.5811641216278076,,,,,,
1764808618.810113,,,,,,,-0.12370753288269043,0.2571146488189697,0.2034468650817871,-0.44245442748069763,0.770861029624939,-0.7559181451797485
1764808618.813262,2.0975597237497565,-0.04713584518432617,-1.3792682460427284,0.9360203742980957,0.20787492394447327,0.6864609718322754,,,,,,
1764808618.820143,,,,,,,-0.12421387434005737,0.2875635027885437,0.1980421543121338,-0.3985287845134735,0.8632961511611938,-0.8058923482894897
1764808618.823313,2.1381837028220296,-0.22981880945563316,-1.2147592363655566,0.990239679813385,0.27725720405578613,0.7718001008033752,,,,,,
1764808618.830173,,,,,,,-0.12620019912719727,0.33572596311569214,0.16409265995025635,-0.24395602941513062,0.9221860766410828,-0.8637519478797913
1764808618.833367,2.188784301507473,-0.48971711535453794,-1.1307523349016904,1.0138250589370728,0.3411000370979309,0.8289932608604431,,,,,,
1764808618.840204,,,,,,,-0.134036123752594,0.3840758800506592,0.13892033696174622,-0.05867166072130203,0.9810832142829895,-0.952096700668335
1764808618.843419,2.3719062417179346,-0.5506482616573571,-1.1862421669334173,1.0184988975524902,0.4199831187725067,0.8819952011108398,,,,,,
1764808618.850234,,,,,,,-0.13889604806900024,0.4214092493057251,0.15154004096984863,0.08750703930854797,1.0643926858901978,-1.0287809371948242
1764808618.853471,2.6631881123960017,-0.32947803808152676,-1.4081015418171883,1.0524293184280396,0.4970497190952301,0.9649790525436401,,,,,,
1764808618.860264,,,,,,,-0.1305331587791443,0.4326778054237366,0.19569262862205505,0.18058158457279205,1.1315197944641113,-1.0899436473846436
1764808618.863523,2.9510373782768844,-0.10452128170430659,-1.7288427312135695,1.1253306865692139,0.6081757545471191,1.069201946258545,,,,,,
1764808618.870294,,,,,,,-0.12210267782211304,0.41320204734802246,0.2450965940952301,0.2099190652370453,1.2106473445892334,-1.1595803499221802
1764808618.873575,3.0550483723714947,0.005263619616627693,-1.8213063492469488,1.210086464881897,0.7308820486068726,1.186761498451233,,,,,,
1764808618.880324,,,,,,,-0.12072020769119263,0.4014638662338257,0.30069586634635925,0.20979923009872437,1.3517975807189941,-1.2266563177108765
1764808618.883627,2.932970098927617,0.13250760526061056,-1.7461958709441123,1.283772587776184,0.8936100006103516,1.303989052772522,,,,,,
1764808618.890354,,,,,,,-0.11514586210250854,0.42039090394973755,0.3251829743385315,0.23602762818336487,1.4729576110839844,-1.311199426651001
1764808618.893681,3.0281399071797725,0.42879765948951243,-1.990030492401123,1.4938191175460815,0.838373601436615,1.4773986339569092,,,,,,
1764808618.900384,,,,,,,-0.09140133857727051,0.4359280467033386,0.30229607224464417,0.3407764136791229,1.5697224140167236,-1.4225800037384033
1764808618.903733,3.4152503422796725,0.938373906046152,-1.994387956958264,1.6298784017562866,0.7374283075332642,1.6459200382232666,,,,,,
1764808618.910414,,,,,,,-0.0752488374710083,0.4427837133407593,0.32002127170562744,0.535035252571106,1.6888160705566406,-1.494036316871643
1764808618.913785,3.3047423873811956,0.7639753705173731,-1.4923200402051209,1.650195598602295,0.7207927703857422,1.7697023153305054,,,,,,
1764808618.920444,,,,,,,-0.06714648008346558,0.49182355403900146,0.3341964781284332,0.8512832522392273,1.7669622898101807,-1.5852876901626587
1764808618.923837,2.8472762672901153,0.11808102050125598,-1.6897637896262108,1.640724539756775,0.8571434020996094,1.815143346786499,,,,,,
1764808618.930474,,,,,,,-0.04743695259094238,0.5361009240150452,0.2839626669883728,1.243065357208252,1.8181461095809937,-1.6809263229370117
1764808618.93389,2.7404735966503617,-0.19458207637965677,-2.16991169712469,1.6111958026885986,1.0236440896987915,1.8485679626464844,,,,,,
1764808618.940504,,,,,,,-0.03186219930648804,0.5463712215423584,0.26710566878318787,1.494537591934204,1.8836170434951782,-1.7846612930297852
1764808618.943942,3.013303280314803,0.06227028595209121,-2.142753056564182,1.5981497764587402,1.1562449932098389,1.9300543069839478,,,,,,
1764808618.950534,,,,,,,-0.023755013942718506,0.524860143661499,0.3029828369617462,1.6230266094207764,1.9277048110961914,-1.8968675136566162
1764808618.953995,3.1117671616762874,0.5291612369924783,-2.170506155886501,1.6474028825759888,1.311385989189148,2.0347819328308105,,,,,,
1764808618.960564,,,,,,,0.0022495388984680176,0.4721043109893799,0.355539470911026,1.5562241077423096,1.9888750314712524,-2.0196304321289062
1764808618.964046,3.194861624470353,0.8843015395969152,-2.3466356068611143,1.751644253730774,1.4268977642059326,2.1701557636260986,,,,,,
1764808618.970594,,,,,,,0.031019210815429688,0.4199828505516052,0.39587852358818054,1.3481132984161377,2.048138380050659,-2.141139507293701
1764808618.9741,3.3315321946293115,1.1335849279791117,-2.2661323296040297,1.863246202468872,1.4241117238998413,2.3314032554626465,,,,,,
1764808618.980624,,,,,,,0.06007194519042969,0.3685057759284973,0.3965888023376465,1.1605212688446045,2.101290702819824,-2.2342162132263184
1764808618.984152,3.4134155280679463,1.2107839029937981,-1.9675584022216497,1.9256645441055298,1.3026593923568726,2.4774422645568848,,,,,,
1764808618.990654,,,,,,,0.08220475912094116,0.3697115182876587,0.3953753411769867,1.0051376819610596,2.16487979888916,-2.3984522819519043
1764808618.994204,3.5248218931108712,1.2456547253668309,-1.8746061238884926,1.9634469747543335,1.1568150520324707,2.572169065475464,,,,,,
1764808619.000685,,,,,,,0.10578471422195435,0.42133939266204834,0.39512374997138977,0.868465781211853,2.2365057468414307,-2.5714519023895264
1764808619.004256,3.7308150058209892,1.5439379992395639,-1.9619182043775916,2.0014212131500244,1.0037754774093628,2.6459133625030518,,,,,,
1764808619.010715,,,,,,,0.15117907524108887,0.4614883065223694,0.4148802161216736,0.7409998774528503,2.2962734699249268,-2.7034692764282227
1764808619.014308,4.034276559114456,2.1173305921465158,-2.140314577370882,2.0631282329559326,0.8575606942176819,2.757634401321411,,,,,,
1764808619.020745,,,,,,,0.2092999517917633,0.466926634311676,0.4421219229698181,0.6181128025054932,2.341595411300659,-2.8023576736450195
1764808619.02436,4.215421646293998,2.6718530648887158,-2.3457383657604454,2.1664416790008545,0.7361102104187012,2.9306342601776123,,,,,,
1764808619.030775,,,,,,,0.2544749975204468,0.43987810611724854,0.4383280873298645,0.4949342906475067,2.385303258895874,-2.8857226371765137
1764808619.034414,4.054092435696721,2.8666636893272397,-2.2767516310349105,2.257708787918091,0.6399751305580139,3.124180316925049,,,,,,
1764808619.040805,,,,,,,0.2731381356716156,0.41089171171188354,0.41750895977020264,0.3887255787849426,2.455786943435669,-2.980855703353882
1764808619.044466,3.4829297937989234,2.7320389457821843,-1.958344145283103,2.315159320831299,0.5844455361366272,3.272871255874634,,,,,,
1764808619.050835,,,,,,,0.2692112624645233,0.43571996688842773,0.427634596824646,0.3201732039451599,2.565002918243408,-3.1035051345825195
1764808619.054518,2.8441093276917933,2.5521581794500348,-1.8914795172780752,2.360236167907715,0.5929863452911377,3.3711020946502686,,,,,,
1764808619.060865,,,,,,,0.27566516399383545,0.4888308048248291,0.42458316683769226,0.37415921688079834,2.6631698608398438,-3.197486400604248
1764808619.06457,2.4352175611555573,2.6483319040477276,-1.9594027144253252,2.3927628993988037,0.6269155740737915,3.4646191596984863,,,,,,
1764808619.070895,,,,,,,0.31262460350990295,0.48332250118255615,0.4020542502403259,0.4497016370296478,2.7055718898773193,-3.3049676418304443
1764808619.074623,2.239864500403404,2.8685540331184862,-2.0778306486681104,2.41729736328125,0.6755034327507019,3.563020944595337,,,,,,
1764808619.080925,,,,,,,0.35707780718803406,0.44556325674057007,0.4106560945510864,0.48421621322631836,2.7712883949279785,-3.3994476795196533
1764808619.084675,2.1455963171660897,3.0214170286655424,-2.2599442886188625,2.453378438949585,0.7438324689865112,3.641909122467041,,,,,,
1764808619.090955,,,,,,,0.39471593499183655,0.41643643379211426,0.4466862678527832,0.4542049467563629,2.8503851890563965,-3.4936845302581787
1764808619.094728,2.193187504902482,3.325866716213524,-2.3114038422212,2.5110023021698,0.7797116041183472,3.711125135421753,,,,,,
1764808619.100985,,,,,,,0.43280619382858276,0.40873390436172485,0.4887996017932892,0.4050286114215851,2.932112216949463,-3.5528194904327393
1764808619.10478,2.3701345558702944,3.721215110565722,-2.203987423597276,2.563600778579712,0.7563130259513855,3.809253692626953,,,,,,
1764808619.111015,,,,,,,0.4751022756099701,0.39810776710510254,0.4884710907936096,0.41750797629356384,2.9856231212615967,-3.5860953330993652
1764808619.114832,2.465935355502367,3.949256681215763,-2.1330974855989218,2.5914227962493896,0.6962844133377075,3.927661657333374,,,,,,
1764808619.121045,,,,,,,0.5022388100624084,0.3693733215332031,0.45574063062667847,0.42190298438072205,3.019570827484131,-3.6579678058624268
1764808619.124885,2.350245029529929,3.9041578948169944,-2.1114824506402012,2.599020004272461,0.6302995681762695,4.005276679992676,,,,,,
1764808619.131075,,,,,,,0.5138427019119263,0.3484245538711548,0.4491574466228485,0.38638535141944885,3.0711634159088135,-3.7104780673980713
1764808619.134937,2.142002092066407,3.8191374323964116,-2.1235066504329443,2.615694284439087,0.569354772567749,4.045183181762695,,,,,,
1764808619.141105,,,,,,,0.5306133031845093,0.32452595233917236,0.4703812599182129,0.34720519185066223,3.099045991897583,-3.7194101810455322
1764808619.144989,2.0037480521082878,3.857824598187208,-2.2892615685179827,2.6511130332946777,0.5269268751144409,4.076315402984619,,,,,,
1764808619.151136,,,,,,,0.5458484888076782,0.2920689582824707,0.4838678240776062,0.2883942127227783,3.157809257507324,-3.7459805011749268
1764808619.155042,1.8905033657222985,4.073858335657418,-2.482927406835556,2.6940884590148926,0.5067636966705322,4.104088306427002,,,,,,
1764808619.161166,,,,,,,0.5514876842498779,0.27367115020751953,0.5286221504211426,0.16092762351036072,3.274151563644409,-3.786191701889038
1764808619.165094,1.8635726886987685,4.507739874282479,-2.4580095309391616,2.766984462738037,0.4713119566440582,4.1454386711120605,,,,,,
1764808619.171196,,,,,,,0.5767058730125427,0.29303544759750366,0.5713961124420166,0.0894448533654213,3.3887457847595215,-3.783389091491699
1764808619.175147,1.8430010253131388,5.058726574113964,-2.301805700531602,2.8552303314208984,0.4185645878314972,4.226302146911621,,,,,,
1764808619.181226,,,,,,,0.6270197629928589,0.27986639738082886,0.5351204872131348,0.05203143507242203,3.427319288253784,-3.803006887435913
1764808619.185199,1.5609639528423547,5.335709870326519,-2.173424235290289,2.920769214630127,0.3572559654712677,4.3122735023498535,,,,,,
1764808619.191256,,,,,,,0.6604306697845459,0.24562078714370728,0.512913703918457,0.05769612640142441,3.5151212215423584,-3.7982678413391113
1764808619.195251,1.0650374614536762,5.141724006274342,-2.046112445107102,2.959547281265259,0.30519014596939087,4.357090950012207,,,,,,
1764808619.201286,,,,,,,0.6561399698257446,0.23337316513061523,0.484820693731308,0.15572655200958252,3.5847976207733154,-3.7623953819274902
1764808619.205304,0.5563163704216479,4.698800498537719,-1.8892068961709736,2.983337163925171,0.29981908202171326,4.358043193817139,,,,,,
1764808619.211316,,,,,,,0.6441650390625,0.22462356090545654,0.44200488924980164,0.2859732508659363,3.643303632736206,-3.7447094917297363
1764808619.215356,0.14995733723342416,4.245120034465193,-1.676224362964928,3.000300884246826,0.3598679006099701,4.314661979675293,,,,,,
1764808619.221346,,,,,,,0.6346431970596313,0.21053051948547363,0.42630091309547424,0.3791135847568512,3.7197561264038086,-3.736473798751831
1764808619.225408,-0.11194003352820872,4.110195723451674,-1.4503420161753893,3.01025652885437,0.4452086389064789,4.26907205581665,,,,,,
1764808619.231376,,,,,,,0.6489478349685669,0.18870025873184204,0.425903856754303,0.47019070386886597,3.788283586502075,-3.6853718757629395
1764808619.235461,-0.2355681667625904,4.343064860388636,-1.399364400871098,3.02345871925354,0.5303075909614563,4.241130828857422,,,,,,
1764808619.241406,,,,,,,0.6846144199371338,0.16751492023468018,0.4465929865837097,0.4811522960662842,3.828298568725586,-3.6723971366882324
1764808619.245513,-0.23399814096689223,4.76234708803594,-1.7696596025094389,3.070686101913452,0.6195439696311951,4.217153072357178,,,,,,
1764808619.251436,,,,,,,0.7202274203300476,0.16657090187072754,0.5100558996200562,0.45349299907684326,3.866621255874634,-3.6338093280792236
1764808619.255565,-0.02219137354195118,5.211101493883133,-2.352535186293721,3.1665151119232178,0.6837769150733948,4.20395040512085,,,,,,
1764808619.261466,,,,,,,0.7321748733520508,0.13612276315689087,0.5584555864334106,0.44267016649246216,3.92978572845459,-3.565274238586426
1764808619.265618,0.3066010203629732,5.446393766313791,-2.5180960431113837,3.2441039085388184,0.687505841255188,4.206653594970703,,,,,,
1764808619.271496,,,,,,,0.7264417409896851,0.08523732423782349,0.5641211271286011,0.4695383310317993,3.9980411529541016,-3.478605031967163
1764808619.27567,0.3942348801523447,5.333845245498418,-2.2578011391103265,3.27193546295166,0.6408564448356628,4.196296215057373,,,,,,
1764808619.281526,,,,,,,0.7156787514686584,0.03794968128204346,0.5381028652191162,0.5742926597595215,4.026003360748291,-3.3682973384857178
1764808619.285722,0.12060030984580516,4.854571490485966,-2.093827405353635,3.26869535446167,0.5798566937446594,4.153904438018799,,,,,,
1764808619.291556,,,,,,,0.692737340927124,0.012494087219238281,0.4797334671020508,0.7723533511161804,4.012328147888184,-3.270051956176758
1764808619.295775,-0.5135469037532806,3.9978076538950202,-2.056643629863113,3.2329678535461426,0.5431253910064697,4.045979976654053,,,,,,
1764808619.301587,,,,,,,0.6439254283905029,0.023501813411712646,0.43192529678344727,1.0045876502990723,3.9948925971984863,-3.176146984100342
1764808619.305827,-1.1473662005722522,3.128204501736164,-2.11810566817224,3.1832025051116943,0.6056534647941589,3.88970947265625,,,,,,
1764808619.311617,,,,,,,0.5916476249694824,0.03621041774749756,0.41746068000793457,1.2405809164047241,3.9493660926818848,-3.095958948135376
1764808619.315879,-1.4805483538687227,2.5744869156360624,-2.4270021059960127,3.1682586669921875,0.7561007738113403,3.7227604389190674,,,,,,
1764808619.321647,,,,,,,0.5525620579719543,0.004580378532409668,0.46204638481140137,1.376114010810852,3.93984055519104,-3.0371665954589844
1764808619.325932,-1.4069582170009611,2.5628169361084696,-2.7244816622704264,3.197854995727539,0.9246266484260559,3.599914789199829,,,,,,
1764808619.331677,,,,,,,0.5254325270652771,-0.014570415019989014,0.5104053020477295,1.3583861589431763,3.970763683319092,-2.9757840633392334
1764808619.335984,-1.1370581570476292,2.9788498065710067,-2.7938690867513416,3.234755277633667,1.0747495889663696,3.5318357944488525,,,,,,
1764808619.341707,,,,,,,0.5358098149299622,-0.020219922065734863,0.5144839286804199,1.239445686340332,3.9849469661712646,-2.9322874546051025
1764808619.346037,-0.76534256721735,3.4553216559052466,-2.4821055690586564,3.240396022796631,1.1288455724716187,3.500896692276001,,,,,,
1764808619.351737,,,,,,,0.5834364295005798,-0.015607714653015137,0.48303383588790894,1.0619175434112549,3.977111339569092,-2.888885736465454
1764808619.356089,-0.34383857186734673,3.851488965424895,-1.979789668893814,3.2406606674194336,1.0597147941589355,3.4813759326934814,,,,,,
1764808619.361767,,,,,,,0.6412031054496765,0.01324617862701416,0.4641037583351135,0.869938313961029,3.9901726245880127,-2.8236823081970215
1764808619.366141,0.07921382196843624,4.23093310368061,-1.35423668063879,3.2165942192077637,0.9121354222297668,3.4810826778411865,,,,,,
1764808619.371797,,,,,,,0.6959930062294006,0.01822894811630249,0.3868011236190796,0.8590240478515625,3.9139492511749268,-2.6801366806030273
1764808619.376194,0.36940965097546574,4.406626939716935,-0.9187960029382258,3.1613306999206543,0.7603590488433838,3.5020911693573,,,,,,
1764808619.381827,,,,,,,0.712062656879425,-0.04511106014251709,0.29039454460144043,0.9026583433151245,3.754812717437744,-2.6125218868255615
1764808619.386246,0.034625323179364204,3.9711446878969667,-0.775757724378258,3.076882839202881,0.62718665599823,3.468682289123535,,,,,,
1764808619.391857,,,,,,,0.6502082347869873,-0.11868137121200562,0.22604429721832275,0.8627030849456787,3.7032175064086914,-2.5352518558502197
1764808619.396298,-0.7745967177748679,3.4197681119650603,-0.7280208445608616,2.976900577545166,0.5164695382118225,3.3511860370635986,,,,,,
1764808619.401887,,,,,,,0.6062232255935669,-0.17714136838912964,0.18245449662208557,0.7858453392982483,3.662353277206421,-2.4424126148223877
1764808619.406351,-1.4944459463179112,3.167789493149519,-0.5192635278344154,2.847515106201172,0.442765474319458,3.184138298034668,,,,,,
1764808619.411917,,,,,,,0.6188482046127319,-0.1837560534477234,0.13774549961090088,0.7728612422943115,3.5753822326660156,-2.3788955211639404
1764808619.416403,-1.913231330358982,3.306981690740585,-0.21214900499135256,2.7078733444213867,0.4095229208469391,3.0032782554626465,,,,,,
1764808619.421947,,,,,,,0.6564626097679138,-0.14974245429039001,0.10178926587104797,0.7970960140228271,3.4166910648345947,-2.331817626953125
1764808619.426455,-2.0924965951412915,3.6626229286044834,-0.031750790656358004,2.590830087661743,0.39951929450035095,2.8330495357513428,,,,,,
1764808619.431977,,,,,,,0.6953272223472595,-0.14436134696006775,0.0791093111038208,0.7311722636222839,3.202352523803711,-2.268186092376709
1764808619.436508,-1.9909300715893505,4.028426079520583,-0.2691591784581542,2.514662742614746,0.40693530440330505,2.671678304672241,,,,,,
1764808619.442007,,,,,,,0.7047399878501892,-0.2010984718799591,0.07715055346488953,0.5546678304672241,3.004396677017212,-2.1901495456695557
1764808619.44656,-1.7419070877090095,4.138218579626083,-0.5771051836892962,2.4566233158111572,0.36696285009384155,2.5280628204345703,,,,,,
1764808619.452037,,,,,,,0.6667665243148804,-0.26613518595695496,0.10320508480072021,0.35612937808036804,2.877133369445801,-2.0840768814086914
1764808619.456612,-1.488175780007243,3.995826124688983,-0.7260413611814379,2.3746159076690674,0.27956467866897583,2.3902535438537598,,,,,,
1764808619.462068,,,,,,,0.6064653396606445,-0.26259830594062805,0.17972418665885925,0.14405682682991028,2.8076558113098145,-1.9875636100769043
1764808619.466665,-1.1919228429183364,3.9839521470218893,-0.9119745594203471,2.2911224365234375,0.23134416341781616,2.2633869647979736,,,,,,
1764808619.472098,,,,,,,0.576225221157074,-0.20665046572685242,0.17655232548713684,0.06541355699300766,2.7099270820617676,-1.842454433441162
1764808619.476717,-0.9312503377765416,4.3565047721982,-1.0666910738795996,2.2174434661865234,0.22654613852500916,2.1592681407928467,,,,,,
1764808619.482128,,,,,,,0.6044678092002869,-0.17724737524986267,0.13469719886779785,0.028656871989369392,2.500131368637085,-1.6754306554794312
1764808619.48677,-0.8478624449938535,4.5092906108558175,-0.6955904010772704,2.115706443786621,0.19609315693378448,2.0606532096862793,,,,,,
1764808619.492158,,,,,,,0.6369156241416931,-0.1948922872543335,0.08354568481445312,-0.050750162452459335,2.329511880874634,-1.5015965700149536
1764808619.496822,-1.0515236076250671,4.372113260218501,-0.15911358037441967,1.989909052848816,0.11766760796308517,1.9454412460327148,,,,,,
1764808619.502188,,,,,,,0.6433842778205872,-0.21749147772789001,0.008674055337905884,-0.17402948439121246,2.111172676086426,-1.38462495803833
1764808619.506874,-1.480965702497959,4.078664566895365,0.20366466976255176,1.8523589372634888,0.02389637567102909,1.7941746711730957,,,,,,
1764808619.512218,,,,,,,0.6412073373794556,-0.26028963923454285,-0.03601306676864624,-0.22474133968353271,1.8886834383010864,-1.2460569143295288
1764808619.516927,-1.9473413974925875,3.664273618420958,0.41634997358769177,1.729028344154358,-0.07383569329977036,1.6102631092071533,,,,,,
1764808619.522248,,,,,,,0.6130255460739136,-0.3548876643180847,-0.058193087577819824,-0.25621405243873596,1.7471235990524292,-1.0833325386047363
1764808619.526979,-2.5310697987139226,3.6252784095942974,0.4618085332095623,1.6230536699295044,-0.18999026715755463,1.4178441762924194,,,,,,
1764808619.532278,,,,,,,0.5638735890388489,-0.3999069035053253,-0.05652356147766113,-0.3059772253036499,1.6473551988601685,-1.007927656173706
1764808619.537031,-3.181647922632098,3.693725922876596,0.30952479885518547,1.5166507959365845,-0.24445198476314545,1.2161195278167725,,,,,,
1764808619.542308,,,,,,,0.5255278944969177,-0.33458563685417175,-0.06651943922042847,-0.2750667333602905,1.5358468294143677,-0.9674020409584045
1764808619.547084,-3.5672067443758246,3.6633933284550904,0.05977028582990169,1.4066106081008911,-0.21319365501403809,1.0333284139633179,,,,,,
1764808619.552338,,,,,,,0.5157610774040222,-0.22347941994667053,-0.10460859537124634,-0.18381692469120026,1.3514702320098877,-0.9206700921058655
1764808619.557136,-3.2998739045619963,3.413537108621001,0.05310615176558494,1.2519159317016602,-0.11480005830526352,0.9002556800842285,,,,,,
1764808619.562368,,,,,,,0.5240604281425476,-0.16276124119758606,-0.12294971942901611,-0.09401113539934158,1.144392728805542,-0.8509986400604248
1764808619.567188,-2.529776251772046,2.979949292245507,0.32400574415028094,1.0677034854888916,-0.014911009930074215,0.798231303691864,,,,,,
1764808619.572398,,,,,,,0.5117394924163818,-0.16128438711166382,-0.1356143355369568,-0.004807694349437952,0.9608131051063538,-0.7060530781745911
1764808619.577241,-1.6717293896332381,2.732444019451737,0.3693038525134325,0.8950721025466919,0.05409274995326996,0.6918622255325317,,,,,,
1764808619.582428,,,,,,,0.4726121425628662,-0.2100086510181427,-0.12968069314956665,-0.0101380106061697,0.7956185936927795,-0.5557671785354614
1764808619.587293,-1.0791679858759045,2.253835158088803,0.19435908127874135,0.7502041459083557,0.05943424999713898,0.5591111183166504,,,,,,
1764808619.592458,,,,,,,0.3903946280479431,-0.23687264323234558,-0.09025537967681885,-0.07440637797117233,0.6990331411361694,-0.4282553195953369
1764808619.597345,-0.7577601492643355,1.7969161504864692,0.11790098775923251,0.6381845474243164,-0.034796860069036484,0.4250435531139374,,,,,,
1764808619.602488,,,,,,,0.3052821755409241,-0.22124142944812775,-0.08221089839935303,-0.14794105291366577,0.6072766184806824,-0.31163737177848816
1764808619.607398,-0.6512801347076892,1.9741396803081035,0.32395722883343697,0.5178976058959961,-0.1583736538887024,0.31279557943344116,,,,,,
1764808619.612518,,,,,,,0.2823726534843445,-0.20342019200325012,-0.10317361354827881,-0.22082246840000153,0.5232887864112854,-0.20628850162029266
1764808619.61745,-0.859562527398765,2.439069560408592,0.6625298429965972,0.3911581039428711,-0.2097058743238449,0.21988192200660706,,,,,,
1764808619.622549,,,,,,,0.32927078008651733,-0.18318061530590057,-0.141717791557312,-0.20063890516757965,0.42232033610343933,-0.08533331751823425
1764808619.627503,-1.1551119923934339,2.636506441697478,1.062467903226614,0.25365641713142395,-0.19783642888069153,0.1414443701505661,,,,,,
1764808619.632579,,,,,,,0.40249526500701904,-0.14113496243953705,-0.17571568489074707,-0.13799655437469482,0.2500167489051819,0.013603916391730309
1764808619.637555,-1.3728037262037396,2.7124001793324948,1.2555372369557618,0.10340647399425507,-0.1556871086359024,0.04779376834630966,,,,,,
1764808619.642609,,,,,,,0.44658148288726807,-0.08893223106861115,-0.20538991689682007,-0.058801084756851196,0.07486730068922043,0.08122210204601288
1764808619.647607,-1.4879583378642796,2.964731264847517,1.1596171948581933,-0.04999905452132225,-0.11491145193576813,-0.061150290071964264,,,,,,
1764808619.652639,,,,,,,0.47066181898117065,-0.09108752012252808,-0.2162775993347168,-0.006685958243906498,-0.11069483309984207,0.17346781492233276
1764808619.65766,-1.3663538194119929,3.011844313678145,1.0151149081602693,-0.18573948740959167,-0.08742836862802505,-0.18101100623607635,,,,,,
1764808619.662669,,,,,,,0.46787601709365845,-0.12856386601924896,-0.19830822944641113,-0.013442929834127426,-0.27678099274635315,0.28337034583091736
1764808619.667712,-1.1269912288025021,2.8668215102374552,0.9829451614394783,-0.30510663986206055,-0.07948949187994003,-0.30635350942611694,,,,,,
1764808619.672699,,,,,,,0.4361119866371155,-0.16990745067596436,-0.16854554414749146,-0.024614548310637474,-0.4148653745651245,0.4252665042877197
1764808619.677764,-0.9305243615895509,2.810140422594547,0.9954512995302677,-0.4157196879386902,-0.09314564615488052,-0.4437459707260132,,,,,,
1764808619.682729,,,,,,,0.4140585660934448,-0.19495299458503723,-0.15055394172668457,-0.05708114802837372,-0.5490817427635193,0.5556707978248596
1764808619.687817,-0.9260831642717122,2.8726152912080285,1.0340671536505222,-0.5238254070281982,-0.1189894899725914,-0.5977991819381714,,,,,,
1764808619.692759,,,,,,,0.4199884533882141,-0.18646752834320068,-0.15533339977264404,-0.06227732449769974,-0.6785047650337219,0.681192934513092
1764808619.697869,-1.0437368992716074,3.0928035180091857,1.1695113968849182,-0.6465321779251099,-0.14285044372081757,-0.7679715156555176,,,,,,
1764808619.702789,,,,,,,0.4643179774284363,-0.18118661642074585,-0.17385798692703247,0.01275484450161457,-0.8080840110778809,0.8417059183120728
1764808619.707921,-1.2136074359819293,3.284357771000266,1.37973118737936,-0.7818231582641602,-0.13205718994140625,-0.9371669292449951,,,,,,
1764808619.712819,,,,,,,0.5142413973808289,-0.1630094349384308,-0.1912442445755005,0.09571843594312668,-0.9672403931617737,0.9768920540809631
1764808619.717974,-1.425220434400439,3.472448731794953,1.5066174456268548,-0.9240826368331909,-0.0980718806385994,-1.0918407440185547,,,,,,
1764808619.722849,,,,,,,0.5493947267532349,-0.13135042786598206,-0.21440768241882324,0.18712398409843445,-1.136566162109375,1.0994256734848022
1764808619.728026,-1.621363768747449,3.69795260066092,1.5736702896803616,-1.0712560415267944,-0.06667960435152054,-1.235353946685791,,,,,,
1764808619.732879,,,,,,,0.5825952291488647,-0.1436101794242859,-0.2179250717163086,0.25350460410118103,-1.3044278621673584,1.2497297525405884
1764808619.738079,-1.7637445332467554,3.8248312601238488,1.530147958818078,-1.2106952667236328,-0.02705029584467411,-1.387141227722168,,,,,,
1764808619.742909,,,,,,,0.5991911888122559,-0.18019047379493713,-0.2014954686164856,0.26637035608291626,-1.4426770210266113,1.3895978927612305
1764808619.748131,-1.8881053646698593,3.894253755918145,1.3553189229175449,-1.3451942205429077,0.018757939338684082,-1.545084834098816,,,,,,
1764808619.752939,,,,,,,0.6002860069274902,-0.20412644743919373,-0.17587971687316895,0.25308606028556824,-1.5854690074920654,1.5444786548614502
1764808619.758183,-1.9043869296461342,3.8536604642450807,1.0624114968642593,-1.4639297723770142,0.0501893125474453,-1.7088183164596558,,,,,,
1764808619.762969,,,,,,,0.5926883816719055,-0.22721609473228455,-0.1494700312614441,0.22235238552093506,-1.755293846130371,1.7054606676101685
1764808619.768865,-1.8420245814964173,3.5939907064050436,0.6554401769965886,-1.584836483001709,0.06000598892569542,-1.8919236660003662,,,,,,
1764808619.772999,,,,,,,0.5664281249046326,-0.2549070417881012,-0.11513900756835938,0.1535898894071579,-1.893459677696228,1.8608777523040771
1764808619.778917,-1.81099552924335,3.3734821616083384,0.42463381780833004,-1.7143490314483643,0.04916669800877571,-2.0815272331237793,,,,,,
1764808619.78303,,,,,,,0.5426436066627502,-0.2747804820537567,-0.06245124340057373,0.0643196627497673,-2.000176429748535,2.014867067337036
1764808619.78897,-1.8008920683801173,3.2672266034573316,0.30340865406244993,-1.830832839012146,0.03219171240925789,-2.278599262237549,,,,,,
1764808619.79306,,,,,,,0.5444300770759583,-0.28707370162010193,-0.013346433639526367,-0.012695463374257088,-2.0953991413116455,2.1707394123077393
1764808619.799022,-1.776556376285851,3.363605495238304,0.29772622451186176,-1.9179507493972778,0.036087047308683395,-2.4722564220428467,,,,,,
1764808619.80309,,,,,,,0.5592352747917175,-0.2798735201358795,0.008389085531234741,-0.051370687782764435,-2.148061752319336,2.3155593872070312
1764808619.809074,-1.8757479873999952,3.7627626342236993,0.5193450686380267,-1.99220609664917,0.04495590552687645,-2.6461567878723145,,,,,,
1764808619.81312,,,,,,,0.5931410193443298,-0.24870669841766357,0.02310502529144287,-0.009493839927017689,-2.200047254562378,2.4629886150360107
1764808619.819127,-2.049715730296075,4.361902831849456,0.6825207838848233,-2.057932138442993,0.059298835694789886,-2.7887680530548096,,,,,,
1764808619.82315,,,,,,,0.6483697891235352,-0.2162339985370636,0.012689977884292603,0.0543125718832016,-2.310291051864624,2.6148293018341064
1764808619.829179,-2.293126134991646,4.848819502830505,0.4541054114863276,-2.121738910675049,0.05180150642991066,-2.906815528869629,,,,,,
1764808619.83318,,,,,,,0.699631929397583,-0.2028052806854248,-0.00925600528717041,0.1964777708053589,-2.50443172454834,2.793156147003174
1764808619.839231,-2.407247019690275,4.494957549598813,-0.1801750731036067,-2.173818826675415,0.02729775942862034,-3.014599561691284,,,,,,
1764808619.84321,,,,,,,0.670830249786377,-0.2169736921787262,-0.018678128719329834,0.32599395513534546,-2.750950336456299,2.932628631591797
1764808619.849284,-2.384947509598732,3.3897616807579993,-0.7913608055710792,-2.2651612758636475,0.014603049494326115,-3.1544339656829834,,,,,,
1764808619.85324,,,,,,,0.5424172878265381,-0.20038515329360962,0.011307954788208008,0.3808441162109375,-2.829193353652954,3.002591133117676
1764808619.859336,-2.3236995524317026,2.5055969192832706,-0.8622634569205343,-2.3828704357147217,0.024727854877710342,-3.3288509845733643,,,,,,
1764808619.86327,,,,,,,0.44900989532470703,-0.18575257062911987,0.07316365838050842,0.3620169162750244,-2.834331750869751,3.065939426422119
1764808619.869388,-2.0542022280603645,2.19046830907166,-0.6920075741544366,-2.484090805053711,0.07153467833995819,-3.5122721195220947,,,,,,
1764808619.8733,,,,,,,0.45275044441223145,-0.2086758017539978,0.12331056594848633,0.23805686831474304,-2.826505184173584,3.1592445373535156
