timestamp,phone_accel_x,phone_accel_y,phone_accel_z,phone_gyro_x,phone_gyro_y,phone_gyro_z,watch_accel_x,watch_accel_y,watch_accel_z,watch_gyro_x,watch_gyro_y,watch_gyro_z
1764808595.261256,-0.6208369195185601,0.8844254582375287,0.4226648558229208,1.4168273210525513,-0.36931586265563965,2.0860698223114014,,,,,,
1764808595.269506,,,,,,,0.20656806230545044,0.19452454149723053,-0.0523298978805542,0.6237236261367798,0.7241771221160889,-2.6333234310150146
1764808595.271309,-0.0911646642640233,1.1401613837599753,0.7263076109021902,1.3548948764801025,-0.27824655175209045,2.1866824626922607,,,,,,
1764808595.279536,,,,,,,0.3251229524612427,0.13151510059833527,-0.07159039378166199,0.8019435405731201,0.6500357985496521,-2.6573710441589355
1764808595.281361,0.21186200474351644,2.0633061564922333,0.8185802364081144,1.3195868730545044,-0.3126409947872162,2.3008170127868652,,,,,,
1764808595.289567,,,,,,,0.40653151273727417,0.04298211634159088,-0.0012952685356140137,0.8043690919876099,0.5582882761955261,-2.6474716663360596
1764808595.291413,-0.06613258740343153,2.747428238093853,0.7227922962576151,1.317165732383728,-0.3968585431575775,2.33029842376709,,,,,,
1764808595.299597,,,,,,,0.445242702960968,-0.049046777188777924,0.09062071144580841,0.6703290343284607,0.4074026644229889,-2.575889825820923
1764808595.301466,-0.6902193024981766,3.1297645906597373,0.3245066794097423,1.374187707901001,-0.4432785212993622,2.257237195968628,,,,,,
1764808595.309627,,,,,,,0.4279015064239502,-0.14460226893424988,0.15699119865894318,0.45754164457321167,0.2780185639858246,-2.526648998260498
1764808595.311517,-1.2731047500893473,3.1627678655952214,-0.173518245562911,1.4582090377807617,-0.4119897782802582,2.128575563430786,,,,,,
1764808595.319657,,,,,,,0.334791362285614,-0.18858051300048828,0.20772749185562134,0.23985007405281067,0.33836767077445984,-2.5115439891815186
1764808595.32157,-1.6893724522210656,2.6625036372631787,-0.40008097583204505,1.4865964651107788,-0.3073677718639374,2.004103899002075,,,,,,
1764808595.329687,,,,,,,0.24089884757995605,-0.14898374676704407,0.19648945331573486,0.1060832217335701,0.47554680705070496,-2.448524236679077
1764808595.331622,-1.792701455400884,2.0990607759624718,-0.24526421586871144,1.4542917013168335,-0.1992226243019104,1.9250819683074951,,,,,,
1764808595.339717,,,,,,,0.23394131660461426,-0.10691060870885849,0.16381582617759705,0.07640708237886429,0.5845414996147156,-2.4622771739959717
1764808595.341674,-1.696118565480411,1.9668349102526903,0.03882014452069998,1.410899043083191,-0.13043983280658722,1.912252426147461,,,,,,
1764808595.349747,,,,,,,0.2808217406272888,-0.06356336921453476,0.13728389143943787,0.13101725280284882,0.6384207010269165,-2.490452527999878
1764808595.351726,-1.5195257347777484,2.2655092292696235,0.39201837314665317,1.4006965160369873,-0.0999855324625969,1.9307860136032104,,,,,,
1764808595.359777,,,,,,,0.3481971025466919,-0.038945406675338745,0.08786718547344208,0.23604467511177063,0.5628907680511475,-2.5110254287719727
1764808595.361779,-1.3629752828896045,2.8514719654142855,0.5362316137701273,1.465057611465454,-0.12648159265518188,1.9604095220565796,,,,,,
1764808595.369807,,,,,,,0.35798680782318115,-0.027078896760940552,0.08611690998077393,0.34202972054481506,0.526088535785675,-2.549201011657715
1764808595.371831,-1.3427774212524295,2.917333553856611,0.6086103290215135,1.5463085174560547,-0.1828918755054474,1.9829297065734863,,,,,,
1764808595.379837,,,,,,,0.30245697498321533,-0.013913199305534363,0.10597223043441772,0.4099501669406891,0.5634703040122986,-2.5165834426879883
1764808595.381883,-1.4245125783920287,2.473397361946106,0.6604822628170252,1.604000210762024,-0.19163115322589874,1.967394232749939,,,,,,
1764808595.389867,,,,,,,0.24428808689117432,-0.05999649316072464,0.12546555697917938,0.4050222635269165,0.620968222618103,-2.474672317504883
1764808595.391936,-1.5970273460008204,1.9206424833983182,0.4684712059691548,1.6419832706451416,-0.11544451117515564,1.9117615222930908,,,,,,
1764808595.399897,,,,,,,0.19799137115478516,-0.11536239087581635,0.14743298292160034,0.3887900114059448,0.7332460284233093,-2.445108652114868
1764808595.401989,-1.7541412769906222,1.4138508991241454,0.17205635631680488,1.6463452577590942,0.038774922490119934,1.8223340511322021,,,,,,
1764808595.409927,,,,,,,0.1785944700241089,-0.11043617129325867,0.1434580683708191,0.4514819085597992,0.8609959483146667,-2.3715460300445557
1764808595.41204,-1.7251633120484648,1.1322995643436908,-0.024313772523403165,1.6214615106582642,0.19317488372325897,1.74239182472229,,,,,,
1764808595.419957,,,,,,,0.2080128788948059,-0.0650654137134552,0.11802688241004944,0.6673323512077332,0.9729446172714233,-2.341752290725708
1764808595.422092,-1.5000991497740148,1.3006190722197293,-0.02142272725701332,1.584273338317871,0.2829025387763977,1.7159448862075806,,,,,,
1764808595.429988,,,,,,,0.26450657844543457,-0.010492369532585144,0.10025052726268768,0.9317117929458618,1.1241497993469238,-2.352041244506836
1764808595.432145,-1.167910537559539,1.9072130929827689,0.3360577087327838,1.5021172761917114,0.2490532249212265,1.7589296102523804,,,,,,
1764808595.440018,,,,,,,0.3830430507659912,0.01881621778011322,0.06909739971160889,1.1248146295547485,1.0407925844192505,-2.3144826889038086
1764808595.442197,-0.9059129212938248,3.1438831323832273,0.7814838469401002,1.4850025177001953,0.13452717661857605,1.8205254077911377,,,,,,
1764808595.450048,,,,,,,0.5056617259979248,-0.024642154574394226,0.06500214338302612,1.204982876777649,0.7604427337646484,-2.284214735031128
1764808595.452249,-1.0197259090870618,4.003206298068165,0.628206717634201,1.5427736043930054,0.028971724212169647,1.8619964122772217,,,,,,
1764808595.460078,,,,,,,0.5242350697517395,-0.12509214878082275,0.09454178810119629,1.1487008333206177,0.5454550385475159,-2.240772247314453
1764808595.462301,-1.468753578917682,3.8218425997018812,0.3020867578089237,1.5926986932754517,-0.012183597311377525,1.8386739492416382,,,,,,
1764808595.470108,,,,,,,0.4300193190574646,-0.2210199236869812,0.1453486680984497,0.9323137402534485,0.49958664178848267,-2.1612768173217773
1764808595.472354,-1.9143430909931658,2.8805770638674497,0.20800123766213655,1.584229826927185,0.015971608459949493,1.7457826137542725,,,,,,
1764808595.480138,,,,,,,0.29813718795776367,-0.27870428562164307,0.1877487301826477,0.6520302891731262,0.5632598996162415,-2.068727493286133
1764808595.482406,-2.128446152661741,1.9178987376481293,0.3253061592243612,1.5444908142089844,0.06669744104146957,1.6096547842025757,,,,,,
1764808595.490168,,,,,,,0.20539742708206177,-0.3154818117618561,0.19301985204219818,0.3971487581729889,0.6502373814582825,-1.9950497150421143
1764808595.492458,-2.131028570370376,1.251454351556301,0.3990188995584845,1.5054086446762085,0.1082179918885231,1.4589743614196777,,,,,,
1764808595.500198,,,,,,,0.16316914558410645,-0.3110381066799164,0.17037588357925415,0.2588235139846802,0.7634502649307251,-1.9321095943450928
1764808595.502512,-2.0643068579673765,0.8807581679016351,0.37585327415689823,1.4599086046218872,0.13076873123645782,1.3269151449203491,,,,,,
1764808595.510228,,,,,,,0.16411417722702026,-0.26157188415527344,0.12024766206741333,0.27945369482040405,0.8930612206459045,-1.8665449619293213
1764808595.512563,-1.884181761485338,0.8860971908420324,0.559444877705723,1.3795106410980225,0.09196382761001587,1.2408119440078735,,,,,,
1764808595.520258,,,,,,,0.2226157784461975,-0.18726301193237305,0.06043803691864014,0.4042890965938568,0.9239845275878906,-1.8084050416946411
1764808595.522616,-1.531968159982562,1.4007996943712233,1.0540716846726834,1.3022624254226685,-0.019760863855481148,1.2150804996490479,,,,,,
1764808595.530288,,,,,,,0.3186856508255005,-0.1327504813671112,-0.006486833095550537,0.5675821304321289,0.7730759978294373,-1.7830320596694946
1764808595.532667,-1.1519815854132174,2.1163012490987776,1.3500465354725717,1.2913531064987183,-0.16401231288909912,1.2429267168045044,,,,,,
1764808595.540318,,,,,,,0.3725336790084839,-0.12401577830314636,-0.03665417432785034,0.7132477164268494,0.6007825136184692,-1.770045280456543
1764808595.54272,-1.0617921959221361,2.3602760096788407,1.26572369992733,1.3206613063812256,-0.29031363129615784,1.3038583993911743,,,,,,
1764808595.550349,,,,,,,0.3522527813911438,-0.16691860556602478,-0.012204527854919434,0.7803740501403809,0.5239689350128174,-1.747567892074585
1764808595.552772,-1.3129890167102216,2.126110695451498,1.2334558996595442,1.3349356651306152,-0.3398396372795105,1.351871132850647,,,,,,
1764808595.56038,,,,,,,0.2830818295478821,-0.21954131126403809,0.03768760710954666,0.7151203751564026,0.5356237292289734,-1.7357124090194702
1764808595.562824,-1.8006769643247127,1.746345070156455,1.3045885603725909,1.3307628631591797,-0.2939095199108124,1.3497127294540405,,,,,,
1764808595.570409,,,,,,,0.220456063747406,-0.25551724433898926,0.07587476074695587,0.5632237792015076,0.5959064960479736,-1.7280161380767822
1764808595.572876,-2.3220301579147575,1.5045552524000405,1.3861363782465457,1.3386518955230713,-0.1970980316400528,1.2908155918121338,,,,,,
1764808595.580439,,,,,,,0.20532679557800293,-0.2799597382545471,0.08486051112413406,0.3717857301235199,0.6319542527198792,-1.7175891399383545
1764808595.582929,-2.7373390980169177,1.4852192682892082,1.4276444466769695,1.357664942741394,-0.07604210823774338,1.2120482921600342,,,,,,
1764808595.590469,,,,,,,0.2169046401977539,-0.2907009720802307,0.07818257808685303,0.2026856243610382,0.6302695274353027,-1.7003703117370605
1764808595.592981,-2.994844955821335,1.4917138910055159,1.422340348919481,1.3708386421203613,0.055520445108413696,1.1377249956130981,,,,,,
1764808595.600499,,,,,,,0.2213408350944519,-0.29515063762664795,0.06079721450805664,0.10133455693721771,0.6429142355918884,-1.6601157188415527
1764808595.603033,-3.0890491339117285,1.386372525089979,1.4097884719908236,1.3528904914855957,0.17842882871627808,1.0774717330932617,,,,,,
1764808595.610529,,,,,,,0.20869600772857666,-0.29187750816345215,0.043804291635751724,0.047933921217918396,0.6905278563499451,-1.6131700277328491
1764808595.613086,-2.9950065761238336,1.1643547447741032,1.4604256032943725,1.2969098091125488,0.2791738212108612,1.0237035751342773,,,,,,
1764808595.620559,,,,,,,0.20478343963623047,-0.27111488580703735,0.02541166916489601,0.06742745637893677,0.7263209819793701,-1.55258047580719
1764808595.623138,-2.737666430275142,0.9948305372834205,1.5321101988017558,1.2186212539672852,0.3464720547199249,0.9624209403991699,,,,,,
1764808595.630589,,,,,,,0.22982913255691528,-0.25981879234313965,0.004819214344024658,0.14770258963108063,0.7229337096214294,-1.4732308387756348
1764808595.63319,-2.408763269472122,1.0541279449045657,1.561373702687025,1.1487367153167725,0.3745180666446686,0.8976608514785767,,,,,,
1764808595.640619,,,,,,,0.263965904712677,-0.25647610425949097,-0.011630773544311523,0.24497075378894806,0.660197913646698,-1.3950821161270142
1764808595.643242,-2.07105165605247,1.258714697948098,1.5171183813750744,1.1035583019256592,0.3757549524307251,0.840414822101593,,,,,,
1764808595.650649,,,,,,,0.27466875314712524,-0.2694311738014221,-0.017662767320871353,0.34787076711654663,0.6133699417114258,-1.3043400049209595
1764808595.653296,-1.7966931553855536,1.3752771305799483,1.401240423876047,1.0735149383544922,0.35812124609947205,0.7929965257644653,,,,,,
1764808595.660679,,,,,,,0.25253045558929443,-0.28099697828292847,-0.0065882205963134766,0.431183397769928,0.6154866218566895,-1.1956501007080078
1764808595.663347,-1.6017817009210586,1.3395400467664003,1.3718997631013392,1.0432151556015015,0.3371131718158722,0.7464402318000793,,,,,,
1764808595.670709,,,,,,,0.22111374139785767,-0.29244464635849,0.006619751453399658,0.46248751878738403,0.618586003780365,-1.0826071500778198
1764808595.673399,-1.5571581308186053,1.2235516146302223,1.3557967695623636,1.0187530517578125,0.3283527195453644,0.6896427869796753,,,,,,
1764808595.68074,,,,,,,0.20007109642028809,-0.3133694529533386,0.018875719979405403,0.44303831458091736,0.6297520995140076,-0.9848473072052002
1764808595.683451,-1.6297583798661828,1.1086515622526407,1.3448048354268074,0.9931973218917847,0.3248938024044037,0.6225625276565552,,,,,,
1764808595.69077,,,,,,,0.18444913625717163,-0.3259546160697937,0.02189558744430542,0.3887212574481964,0.6406723856925964,-0.8908694386482239
1764808595.693504,-1.7457850981861351,0.9836357740521431,1.4091343919962644,0.9617308378219604,0.31450217962265015,0.5374309420585632,,,,,,
1764808595.7008,,,,,,,0.16982108354568481,-0.3150376081466675,0.01045989990234375,0.33303794264793396,0.6460434794425964,-0.7920923233032227
1764808595.703556,-1.8558087766990063,0.9471925877958536,1.4731611662268638,0.9362375140190125,0.29797807335853577,0.4440173804759979,,,,,,
1764808595.71083,,,,,,,0.16555356979370117,-0.2994998097419739,-0.003934621810913086,0.3098631203174591,0.6455861926078796,-0.7034170627593994
1764808595.713609,-1.8525082738488912,0.881241567504406,1.4217185637593268,0.9162885546684265,0.2668219804763794,0.3625029921531677,,,,,,
1764808595.72086,,,,,,,0.16564804315567017,-0.2854146361351013,-0.022229671478271484,0.31350043416023254,0.6439787149429321,-0.6286644339561462
1764808595.72366,-1.7258365351349114,0.7401140179365873,1.4388497313022612,0.8705719113349915,0.2263675183057785,0.30735263228416443,,,,,,
1764808595.73089,,,,,,,0.16644233465194702,-0.2633540630340576,-0.03851372003555298,0.31239014863967896,0.6301600933074951,-0.555834174156189
1764808595.733713,-1.5340262615561484,0.6610176848679781,1.5674994920909404,0.7966927289962769,0.18778103590011597,0.2628931403160095,,,,,,
1764808595.74092,,,,,,,0.1725495457649231,-0.2522357702255249,-0.046510279178619385,0.31480246782302856,0.6002283096313477,-0.48442983627319336
1764808595.743765,-1.3906506408005952,0.578933275899291,1.6204986763507128,0.7218627333641052,0.16359448432922363,0.20783069729804993,,,,,,
1764808595.75095,,,,,,,0.18063271045684814,-0.25205469131469727,-0.04792475700378418,0.31275448203086853,0.5611717104911804,-0.4165725111961365
1764808595.753817,-1.3567653223335743,0.5597282246917485,1.4962199702531098,0.6508117318153381,0.16431084275245667,0.14225168526172638,,,,,,
1764808595.76098,,,,,,,0.17966759204864502,-0.25304317474365234,-0.047228991985321045,0.2917574942111969,0.5193025469779968,-0.3525814712047577
1764808595.76387,-1.3422925603449345,0.6181821672260761,1.323738082000613,0.5926620960235596,0.17931775748729706,0.08086156100034714,,,,,,
1764808595.77101,,,,,,,0.16720324754714966,-0.24444758892059326,-0.03603410720825195,0.254839688539505,0.49342435598373413,-0.28369614481925964
1764808595.773922,-1.3144330780386924,0.6955787106394767,1.1945716038614511,0.5552634596824646,0.20266185700893402,0.03268636763095856,,,,,,
1764808595.78104,,,,,,,0.1521153450012207,-0.2343604564666748,-0.027719616889953613,0.22616392374038696,0.4725435674190521,-0.20116378366947174
1764808595.783974,-1.3028338256597518,0.7075766069471836,1.0873206779975444,0.5276089310646057,0.21958518028259277,-0.0021858655381947756,,,,,,
1764808595.79107,,,,,,,0.13719141483306885,-0.23160046339035034,-0.027813315391540527,0.19995921850204468,0.448752224445343,-0.13095752894878387
1764808595.794027,-1.2841864083349703,0.648063510748744,1.1052291865885258,0.4971778690814972,0.21861229836940765,-0.04002169147133827,,,,,,
1764808595.801101,,,,,,,0.12390047311782837,-0.22455012798309326,-0.03876352310180664,0.1726938784122467,0.42310279607772827,-0.08662867546081543
1764808595.804079,-1.264746379327774,0.4773924713104963,1.1819786642700434,0.4467112123966217,0.1934928297996521,-0.07502388209104538,,,,,,
1764808595.811131,,,,,,,0.10985416173934937,-0.20881497859954834,-0.05646789073944092,0.16385485231876373,0.39532601833343506,-0.039718158543109894
1764808595.814131,-1.2092016022384167,0.258525263980031,1.3268699502855539,0.38537782430648804,0.14030151069164276,-0.11044419556856155,,,,,,
1764808595.821161,,,,,,,0.10277718305587769,-0.19783830642700195,-0.08131027221679688,0.19783759117126465,0.3562702238559723,0.012212413363158703
1764808595.824183,-1.0817571255862712,0.017612813580036163,1.4331915594100952,0.31173384189605713,0.06879783421754837,-0.14289386570453644,,,,,,
1764808595.831191,,,,,,,0.0967218279838562,-0.1944625973701477,-0.08449995517730713,0.20860953629016876,0.318372905254364,0.04026136174798012
1764808595.834236,-0.9446557627946138,-0.11496668787300586,1.426865863519907,0.24411194026470184,0.018644655123353004,-0.17359718680381775,,,,,,
1764808595.841221,,,,,,,0.08849716186523438,-0.1920076608657837,-0.06825542449951172,0.19096732139587402,0.28404688835144043,0.07161002606153488
1764808595.844288,-0.8576759829998016,-0.09168167387545108,1.2822118933916091,0.20220763981342316,0.0011182700982317328,-0.1975104957818985,,,,,,
1764808595.851251,,,,,,,0.08336347341537476,-0.20091235637664795,-0.047423601150512695,0.12226948887109756,0.26021134853363037,0.1169588640332222
1764808595.85434,-0.8681418474346398,0.05581015002727508,1.1175579222857952,0.18876506388187408,0.01632278971374035,-0.21729910373687744,,,,,,
1764808595.861281,,,,,,,0.07667648792266846,-0.21108227968215942,-0.030054688453674316,0.03290439769625664,0.25577664375305176,0.16339027881622314
1764808595.864392,-0.941003670027852,0.22870354169011115,1.0309838006824255,0.19149944186210632,0.03986871987581253,-0.23782625794410706,,,,,,
1764808595.871311,,,,,,,0.06459659337997437,-0.21272611618041992,-0.0198971014469862,-0.04024864360690117,0.2636526823043823,0.19643186032772064
1764808595.874445,-1.0425266466990113,0.2625596340626478,1.0113859507650136,0.1940145194530487,0.051570117473602295,-0.2731296420097351,,,,,,
1764808595.881341,,,,,,,0.054264605045318604,-0.1950596570968628,-0.023330211639404297,-0.08392775058746338,0.28167402744293213,0.23224091529846191
1764808595.884497,-1.1286366579219698,0.20858780537843702,1.1021171920478343,0.18044528365135193,0.048835501074790955,-0.31862911581993103,,,,,,
1764808595.891371,,,,,,,0.054482877254486084,-0.1697331666946411,-0.033895015716552734,-0.09219926595687866,0.2811962366104126,0.2712703347206116
1764808595.894549,-1.1456281247332691,0.07653904980123043,1.1781740112900734,0.14738135039806366,0.048046138137578964,-0.38128024339675903,,,,,,
1764808595.901401,,,,,,,0.05895078182220459,-0.15602916479110718,-0.04960775375366211,-0.08068918436765671,0.2643277943134308,0.3039044737815857
1764808595.904601,-1.0805541795372962,-0.04284896164536476,1.1482036743097006,0.1019475907087326,0.04993211477994919,-0.43955811858177185,,,,,,
1764808595.911431,,,,,,,0.059639155864715576,-0.1501021385192871,-0.06437218189239502,-0.04970410093665123,0.25071850419044495,0.3417402505874634
1764808595.914654,-0.8960013297408819,-0.09845277544558048,1.0884335346102714,0.05133075267076492,0.059003107249736786,-0.47883257269859314,,,,,,
1764808595.921462,,,,,,,0.05626499652862549,-0.13663172721862793,-0.07147574424743652,-0.014821123331785202,0.24017930030822754,0.3830243647098541
1764808595.924706,-0.6303451909676194,-0.12433306663334369,0.9827497119326144,-0.0017622229643166065,0.07410029321908951,-0.4918980002403259,,,,,,
1764808595.931492,,,,,,,0.054189860820770264,-0.11307793855667114,-0.0719754695892334,0.035593848675489426,0.22564376890659332,0.434472918510437
1764808595.934758,-0.3657338850721717,-0.060630117529630656,0.8648311154514551,-0.04002572223544121,0.09107901155948639,-0.4917483329772949,,,,,,
1764808595.941522,,,,,,,0.05219423770904541,-0.08913576602935791,-0.06495332717895508,0.08295999467372894,0.20867836475372314,0.4835703670978546
1764808595.944811,-0.23178455657064914,0.07460954304337501,0.692299542838335,-0.0523609034717083,0.09703932702541351,-0.483537495136261,,,,,,
1764808595.951553,,,,,,,0.05229705572128296,-0.07718062400817871,-0.054964303970336914,0.1209406703710556,0.19120430946350098,0.5155948400497437
1764808595.954863,-0.15600304713845253,0.1828741029292345,0.5630103151023388,-0.044926419854164124,0.09039847552776337,-0.4725612699985504,,,,,,
1764808595.961582,,,,,,,0.04794281721115112,-0.06922364234924316,-0.042557358741760254,0.11598992347717285,0.1727171689271927,0.5207276344299316
1764808595.964916,-0.1484141994446516,0.20682488735914228,0.5722088630151003,-0.03553211688995361,0.0793306976556778,-0.4646238684654236,,,,,,
1764808595.971612,,,,,,,0.036309897899627686,-0.053554654121398926,-0.027801036834716797,0.09846898913383484,0.1734498143196106,0.5139647722244263
1764808595.974967,-0.1713327182173729,0.14097791196405887,0.6553197654873132,-0.029929090291261673,0.07028207927942276,-0.4661314785480499,,,,,,
1764808595.981642,,,,,,,0.023689448833465576,-0.03528660535812378,-0.02701735869050026,0.0973014384508133,0.18824180960655212,0.5018854141235352
1764808595.98502,-0.22611674006730317,0.055686231386661525,0.695469989567995,-0.02626543864607811,0.0730738565325737,-0.46520498394966125,,,,,,
1764808595.991672,,,,,,,0.01901388168334961,-0.01905226707458496,-0.034254904836416245,0.1110827624797821,0.20416004955768585,0.4827745258808136
1764808595.995072,-0.24931582934707402,0.0028057050704956054,0.6841671628523618,-0.029413826763629913,0.1000567376613617,-0.4574376344680786,,,,,,
1764808596.001702,,,,,,,0.01831650733947754,-0.005515336990356445,-0.04096555709838867,0.13242270052433014,0.21050582826137543,0.4604101777076721
1764808596.005124,-0.23270050237178802,0.006001286241412163,0.6267880830079317,-0.034380894154310226,0.14597728848457336,-0.44637683033943176,,,,,,
1764808596.011732,,,,,,,0.023284435272216797,0.0023490190505981445,-0.0463101901113987,0.14694811403751373,0.21045203506946564,0.4452429413795471
1764808596.015176,-0.2073953807234764,0.04654956972897052,0.5434656566768884,-0.039420127868652344,0.20568589866161346,-0.427196741104126,,,,,,
1764808596.021762,,,,,,,0.028634190559387207,0.0027998685836791992,-0.04757523536682129,0.15563781559467316,0.19580093026161194,0.4403343200683594
1764808596.025229,-0.17961597791612147,0.1101151561886072,0.4585036464452743,-0.055940400809049606,0.2602258026599884,-0.41995033621788025,,,,,,
1764808596.031792,,,,,,,0.031869471073150635,-0.00553518533706665,-0.044581301510334015,0.14686590433120728,0.17295606434345245,0.4258118271827698
1764808596.035281,-0.17174305258393285,0.11097907954156398,0.33970307949781414,-0.07306372374296188,0.3116479814052582,-0.424039363861084,,,,,,
1764808596.041823,,,,,,,0.028697729110717773,-0.004837155342102051,-0.03345311060547829,0.1276566982269287,0.16271434724330902,0.4250815212726593
1764808596.045333,-0.12145488084852694,0.08518588211536407,0.17590068372003734,-0.06857390701770782,0.37543681263923645,-0.41436490416526794,,,,,,
1764808596.051853,,,,,,,0.023750603199005127,0.004679977893829346,-0.020640015602111816,0.12068507820367813,0.15282095968723297,0.44603022933006287
1764808596.055386,-0.02375935351103544,0.17602292186021803,0.0016811580199748277,-0.035650309175252914,0.49708789587020874,-0.3727250397205353,,,,,,
1764808596.061883,,,,,,,0.011964082717895508,0.00800180435180664,-0.01142299547791481,0.14150889217853546,0.1547570824623108,0.4601115882396698
1764808596.065439,-0.09987520946413278,0.3607914602339268,-0.1973345168929547,-0.0118224723264575,0.6306031346321106,-0.32435017824172974,,,,,,
1764808596.071913,,,,,,,0.0007987618446350098,0.009711146354675293,-0.008887652307748795,0.18522094190120697,0.17041780054569244,0.4672400653362274
1764808596.07549,-0.20314473754167556,0.18873802652657032,-0.1174695375394076,-0.04332207515835762,0.6985859274864197,-0.3391038477420807,,,,,,
1764808596.081943,,,,,,,-0.0036017894744873047,0.026375532150268555,-0.013788346201181412,0.24591664969921112,0.18042702972888947,0.466953307390213
1764808596.085542,-0.15846534559875725,-0.31108664134442804,0.1638245345443487,-0.09009859710931778,0.7017832398414612,-0.3922564387321472,,,,,,
1764808596.091973,,,,,,,-0.0034431815147399902,0.05248737335205078,-0.02130413055419922,0.3281412124633789,0.18283160030841827,0.466167151927948
1764808596.095595,-0.03639700902700424,-0.33550562780797477,0.2414163813341409,-0.11697472631931305,0.6745747327804565,-0.42892691493034363,,,,,,
1764808596.102003,,,,,,,-0.0006485581398010254,0.05813014507293701,-0.02688932791352272,0.40080446004867554,0.17608101665973663,0.4621643126010895
1764808596.105647,0.22475480406433343,-0.07140168691277504,0.09826287889666854,-0.11762001365423203,0.6410312056541443,-0.42727071046829224,,,,,,
1764808596.112033,,,,,,,0.003934681415557861,0.04281783103942871,-0.017666220664978027,0.4230956733226776,0.17359735071659088,0.47310271859169006
1764808596.115699,0.5176195600196719,0.14995383010208607,-0.11769286143388598,-0.10145046561956406,0.6076304912567139,-0.3970907926559448,,,,,,
1764808596.122063,,,,,,,0.006534695625305176,0.024461209774017334,0.004600644111633301,0.39663177728652954,0.17704933881759644,0.49283117055892944
1764808596.125753,0.7368462483122944,0.24047698159217834,-0.243541593327187,-0.07748360931873322,0.5622931122779846,-0.36357173323631287,,,,,,
1764808596.132093,,,,,,,0.0050778985023498535,0.020017802715301514,0.021610137075185776,0.36556655168533325,0.1754208207130432,0.5008664727210999
1764808596.135804,0.7810489626541733,0.21847791575193404,-0.2710037103462964,-0.049489159137010574,0.5101491808891296,-0.34592339396476746,,,,,,
1764808596.142123,,,,,,,0.0019336342811584473,0.024500250816345215,0.02560925856232643,0.34598129987716675,0.17211903631687164,0.4972698986530304
1764808596.145856,0.6575175677925348,0.1539642347872257,-0.24719847186692057,-0.03194691613316536,0.4473715126514435,-0.3465045094490051,,,,,,
1764808596.152153,,,,,,,-0.001782536506652832,0.022012531757354736,0.015998955816030502,0.3164633512496948,0.16621027886867523,0.4616810083389282
1764808596.155908,0.5032487971007824,0.05006488437354564,-0.1400924343664199,-0.04128757864236832,0.3776996433734894,-0.35272830724716187,,,,,,
1764808596.162184,,,,,,,-0.010786116123199463,0.031484246253967285,0.004925966262817383,0.2620636224746704,0.16801109910011292,0.42303982377052307
1764808596.165962,0.40102527094483376,-0.11934943300187587,-0.010381656750105321,-0.0645444393157959,0.30810457468032837,-0.3585430681705475,,,,,,
1764808596.172214,,,,,,,-0.014105439186096191,0.052482008934020996,0.0033468008041381836,0.2363542765378952,0.16026636958122253,0.41724851727485657
1764808596.176013,0.3251213041767478,-0.20205694230496882,0.00596157528553158,-0.07975130528211594,0.26672127842903137,-0.35099971294403076,,,,,,
1764808596.182244,,,,,,,-0.007651925086975098,0.060608506202697754,0.0030733346939086914,0.2221023291349411,0.13603825867176056,0.41248631477355957
1764808596.186065,0.2696031228333711,-0.14525193602144718,-0.2009474832257256,-0.08525951951742172,0.2726963460445404,-0.3312462568283081,,,,,,
1764808596.192274,,,,,,,-0.00648343563079834,0.05116891860961914,0.0044915638864040375,0.18676511943340302,0.10242410004138947,0.3920614719390869
1764808596.196118,0.25656156269162894,-0.03395838370323181,-0.45361470535993575,-0.08899912238121033,0.3111322820186615,-0.3083609342575073,,,,,,
1764808596.202304,,,,,,,-0.012218952178955078,0.0339963436126709,0.01647460088133812,0.10892237722873688,0.08047033101320267,0.36150455474853516
1764808596.20617,0.24821985080391168,0.0383984119772911,-0.5483388156712055,-0.08584460616111755,0.34186169505119324,-0.2902202904224396,,,,,,
1764808596.212334,,,,,,,-0.01891469955444336,0.03767538070678711,0.03026902675628662,0.04108421504497528,0.07548356056213379,0.3456331789493561
1764808596.216222,0.30893092461526395,0.0388169296503067,-0.5420505291819572,-0.06314045935869217,0.34338879585266113,-0.26672518253326416,,,,,,
1764808596.222364,,,,,,,-0.0251007080078125,0.05602318048477173,0.033821951597929,-0.004972740542143583,0.0663454532623291,0.3075951039791107
1764808596.226274,0.35699119116812944,0.011722001975774764,-0.521813796839118,-0.03455541282892227,0.3175164461135864,-0.24295754730701447,,,,,,
1764808596.232394,,,,,,,-0.0324288010597229,0.0691457986831665,0.03560053929686546,-0.07089556753635406,0.06445248425006866,0.25979137420654297
1764808596.236327,0.3875172623351216,-0.01679039128124714,-0.4065670864483341,-0.013628476299345493,0.2722417414188385,-0.22223854064941406,,,,,,
1764808596.242424,,,,,,,-0.03240835666656494,0.07474905252456665,0.038237929344177246,-0.12439484149217606,0.06957294046878815,0.2109263688325882
1764808596.246379,0.41762393904626366,-0.05118950448930263,-0.3135603014489636,0.003953180275857449,0.23291592299938202,-0.20156122744083405,,,,,,
1764808596.252454,,,,,,,-0.032472848892211914,0.07603171467781067,0.03573441505432129,-0.1580587923526764,0.07753711938858032,0.16293780505657196
1764808596.256431,0.44882367169111964,-0.07680734534859657,-0.34052725536227224,0.019560793414711952,0.2128075510263443,-0.18017534911632538,,,,,,
1764808596.262484,,,,,,,-0.033046841621398926,0.08804219961166382,0.03072940930724144,-0.16066204011440277,0.08196169883012772,0.12662820518016815
1764808596.266483,0.4878659345299005,-0.05478022245764732,-0.39754327404797074,0.033775415271520615,0.20603299140930176,-0.1483772099018097,,,,,,
1764808596.272515,,,,,,,-0.032335877418518066,0.0987699031829834,0.027063369750976562,-0.14572277665138245,0.0906614437699318,0.10115480422973633
1764808596.276536,0.4927338328272104,-0.023288521128892896,-0.48386020601987834,0.04898190498352051,0.2163931280374527,-0.11743730306625366,,,,,,
1764808596.282545,,,,,,,-0.033330321311950684,0.1004696786403656,0.02883410081267357,-0.1284237951040268,0.09631373733282089,0.06457509100437164
1764808596.286588,0.4969599260896444,0.024664485657215116,-0.5788987891077995,0.06871193647384644,0.2385338544845581,-0.08455578982830048,,,,,,
1764808596.292575,,,,,,,-0.03331059217453003,0.10736429691314697,0.03631102666258812,-0.10571476072072983,0.11020265519618988,0.02652783691883087
1764808596.29664,0.509857109324634,0.15603168871104717,-0.6332727688521146,0.10696158558130264,0.2615342438220978,-0.051882531493902206,,,,,,
1764808596.302605,,,,,,,-0.03376811742782593,0.12728288769721985,0.04671180993318558,-0.07594439387321472,0.126332625746727,-0.022954894229769707
1764808596.306693,0.5885635662928224,0.2514753454685211,-0.6689350338637828,0.16433396935462952,0.26856791973114014,-0.003347470425069332,,,,,,
1764808596.312635,,,,,,,-0.03773993253707886,0.15845012664794922,0.04914653301239014,-0.02653396874666214,0.148000106215477,-0.07417014986276627
1764808596.316745,0.6439546141251922,0.25681319936513897,-0.6409907958835362,0.2182493954896927,0.2689383625984192,0.04947846010327339,,,,,,
1764808596.322665,,,,,,,-0.04078942537307739,0.1847054362297058,0.04413961246609688,0.04617683216929436,0.16844519972801208,-0.13359478116035461
1764808596.326797,0.6846686095684766,0.1449637667298317,-0.5790852515906095,0.25542929768562317,0.2754226624965668,0.09930864721536636,,,,,,
1764808596.332695,,,,,,,-0.04912024736404419,0.19310027360916138,0.04000067338347435,0.12014453113079071,0.1965513974428177,-0.2060125172138214
1764808596.336849,0.6817337251603603,0.03969663509428501,-0.5792290074428543,0.2817953824996948,0.3001879155635834,0.1523265838623047,,,,,,
1764808596.342725,,,,,,,-0.05207502841949463,0.19222477078437805,0.03553377836942673,0.20425008237361908,0.22456012666225433,-0.27010416984558105
1764808596.346902,0.6729232267171145,0.017453239104151724,-0.6142500884741544,0.311454176902771,0.3424418270587921,0.20947012305259705,,,,,,
1764808596.352755,,,,,,,-0.048083364963531494,0.18512475490570068,0.03339695185422897,0.26623862981796265,0.24242568016052246,-0.32871928811073303
1764808596.356954,0.631744536371529,0.05216565604507923,-0.7045943762660026,0.3431226313114166,0.39550262689590454,0.25851279497146606,,,,,,
1764808596.362785,,,,,,,-0.04438912868499756,0.1730758547782898,0.042944423854351044,0.2819913625717163,0.257517546415329,-0.38086962699890137
1764808596.367006,0.5828741224795579,0.1504138488292694,-0.7735247046291828,0.3755061626434326,0.4602784812450409,0.28962385654449463,,,,,,
1764808596.372815,,,,,,,-0.03750765323638916,0.1589972972869873,0.05858207494020462,0.26157984137535095,0.27994829416275024,-0.42460912466049194
1764808596.37706,0.5901558039203286,0.22933424080908296,-0.848766115835309,0.41909173130989075,0.5260047316551208,0.3135973811149597,,,,,,
1764808596.382845,,,,,,,-0.03706824779510498,0.1552298665046692,0.06590497493743896,0.24074193835258484,0.29642102122306824,-0.4575532376766205
1764808596.387111,0.6566843318387866,0.2500029348284006,-0.8756021003127098,0.4668927788734436,0.57220458984375,0.33984172344207764,,,,,,
1764808596.392876,,,,,,,-0.04312396049499512,0.16255390644073486,0.05766475945711136,0.22969089448451996,0.31633374094963074,-0.49946045875549316
1764808596.397163,0.8054834389477967,0.14693419001996516,-0.8225783661335706,0.498057097196579,0.6006532907485962,0.36856338381767273,,,,,,
1764808596.402906,,,,,,,-0.052242815494537354,0.17727643251419067,0.047874219715595245,0.23439380526542664,0.3519386053085327,-0.5496851801872253
1764808596.407215,0.986338311009109,-0.027041736182570456,-0.7314934891074896,0.5134576559066772,0.5992742776870728,0.40849700570106506,,,,,,
1764808596.412936,,,,,,,-0.0541110634803772,0.18912851810455322,0.03567099571228027,0.2660846412181854,0.37802425026893616,-0.59836345911026
1764808596.417269,1.1604629980325698,-0.09401099360585212,-0.6547188769847154,0.5234293341636658,0.5757585763931274,0.4670732319355011,,,,,,
1764808596.422966,,,,,,,-0.045348525047302246,0.20254987478256226,0.02136968821287155,0.3074277639389038,0.3786548972129822,-0.6468498706817627
1764808596.42732,1.2816560130745172,-0.031100071662664413,-0.6558137595493346,0.5391250848770142,0.535788893699646,0.531628429889679,,,,,,
1764808596.432996,,,,,,,-0.032305777072906494,0.200023353099823,0.016527175903320312,0.3484577536582947,0.364955872297287,-0.6983212828636169
1764808596.437372,1.2868594269365072,0.05641454566121101,-0.6732740129161626,0.5606916546821594,0.4886551797389984,0.592749834060669,,,,,,
1764808596.443026,,,,,,,-0.02130734920501709,0.17649924755096436,0.02251577377319336,0.3433207869529724,0.3528752326965332,-0.752834141254425
1764808596.447425,1.2239356455117463,0.09857318695485591,-0.688202044391632,0.5819754600524902,0.44712352752685547,0.6410934925079346,,,,,,
1764808596.453056,,,,,,,-0.016469180583953857,0.15396642684936523,0.03512156754732132,0.270467609167099,0.33898523449897766,-0.814251720905304
1764808596.457477,1.1161030473023652,0.15647183369398115,-0.6653594403993338,0.6056429743766785,0.4021749496459961,0.6766171455383301,,,,,,
1764808596.463086,,,,,,,-0.013497769832611084,0.13503140211105347,0.051357023417949677,0.16088633239269257,0.33304452896118164,-0.8579714298248291
1764808596.467529,1.0033423450410366,0.23671149157881735,-0.6283072553992272,0.6386914849281311,0.37671127915382385,0.7043081521987915,,,,,,
1764808596.473116,,,,,,,-0.011351406574249268,0.11918467283248901,0.0602341890335083,0.04561992362141609,0.3306373059749603,-0.8979042172431946
1764808596.477582,0.9095248281806707,0.3366682418465614,-0.7022569462943822,0.6664272546768188,0.35631680488586426,0.7252989411354065,,,,,,
1764808596.483146,,,,,,,-0.006332874298095703,0.11061030626296997,0.06080663949251175,-0.06686888635158539,0.3225862979888916,-0.942164957523346
1764808596.487634,0.8384142331689596,0.2949941691994667,-0.7242576926350593,0.6827893257141113,0.33904850482940674,0.7412058711051941,,,,,,
1764808596.493176,,,,,,,-0.0020126700401306152,0.11022675037384033,0.05556202679872513,-0.15311536192893982,0.3214568495750427,-0.98512202501297
1764808596.497686,0.8527996091350912,0.2418289807230234,-0.6823094792217016,0.6959509253501892,0.3263532221317291,0.7591587901115417,,,,,,
1764808596.503207,,,,,,,0.00024127960205078125,0.11824542284011841,0.05102477967739105,-0.20797806978225708,0.323081374168396,-1.0290111303329468
1764808596.507738,0.8936240792155266,0.24932138230502604,-0.6475269196540117,0.7047290205955505,0.30383408069610596,0.7902144193649292,,,,,,
1764808596.513237,,,,,,,0.0022417306900024414,0.14323186874389648,0.04375671595335007,-0.23242801427841187,0.32444438338279724,-1.070696473121643
1764808596.517792,0.9827636673927307,0.29174948818981644,-0.592829041717574,0.7191295027732849,0.27175071835517883,0.8265354633331299,,,,,,
1764808596.523267,,,,,,,0.004033207893371582,0.16383576393127441,0.040079355239868164,-0.2432110458612442,0.325283020734787,-1.104567050933838
1764808596.527843,1.0352081403791904,0.3806313022136688,-0.6411819345414638,0.7468984127044678,0.25366657972335815,0.8631442189216614,,,,,,
1764808596.533297,,,,,,,0.004365384578704834,0.16904217004776,0.052645087242126465,-0.31108996272087097,0.3361732065677643,-1.1567925214767456
1764808596.537895,1.094057511971891,0.48227556717693804,-0.7437180337779223,0.7794313430786133,0.2676718831062317,0.8956637978553772,,,,,,
1764808596.543327,,,,,,,0.004254579544067383,0.17039769887924194,0.07738400995731354,-0.41235676407814026,0.3661324381828308,-1.203600287437439
1764808596.547947,1.1565844030335546,0.6440437537133693,-0.8812421520262956,0.8260338306427002,0.3104938268661499,0.9219372868537903,,,,,,
1764808596.553357,,,,,,,0.005891680717468262,0.18528276681900024,0.09553088992834091,-0.4894174635410309,0.40047523379325867,-1.242691159248352
1764808596.558,1.2273591902196406,0.7882049718886613,-1.0283319709993899,0.8751028776168823,0.33466774225234985,0.950649619102478,,,,,,
1764808596.563387,,,,,,,0.0086936354637146,0.2214261293411255,0.09556889533996582,-0.5344074964523315,0.4247491657733917,-1.3174219131469727
1764808596.568052,1.4371370821654796,0.7844833210170269,-1.0491275062687695,0.9149916768074036,0.30317214131355286,1.0072156190872192,,,,,,
1764808596.573417,,,,,,,0.00887686014175415,0.2739819288253784,0.08302082121372223,-0.5466444492340088,0.434182345867157,-1.4407504796981812
1764808596.578104,1.6950252172857523,0.6914256826132535,-0.9603655192323028,0.9600189328193665,0.2180161476135254,1.0979628562927246,,,,,,
1764808596.583447,,,,,,,-0.002203822135925293,0.326674222946167,0.07248663902282715,-0.5445022583007812,0.45153284072875977,-1.5693188905715942
1764808596.588157,1.9085580778509377,0.5643050310879946,-0.9137870156697928,1.0175282955169678,0.13015685975551605,1.2038711309432983,,,,,,
1764808596.593477,,,,,,,-0.01399165391921997,0.3659851551055908,0.07484769821166992,-0.5387013554573059,0.4849288761615753,-1.710257887840271
1764808596.598209,2.0924054097265006,0.5805863038033247,-0.9868095817826688,1.0872774124145508,0.08035826683044434,1.3131948709487915,,,,,,
1764808596.603507,,,,,,,-0.024881839752197266,0.3917046785354614,0.09208226203918457,-0.6189935207366943,0.5528815388679504,-1.8621588945388794
1764808596.608261,2.2955396258741616,0.7786796031743287,-1.106879291883111,1.1799015998840332,0.05765508860349655,1.4367828369140625,,,,,,
1764808596.613538,,,,,,,-0.021842539310455322,0.4137987494468689,0.13139986991882324,-0.7271040081977844,0.6318698525428772,-2.0031206607818604
1764808596.618313,2.534330261814594,1.0713999822229145,-1.2661864951334894,1.300936222076416,0.07149556279182434,1.586310625076294,,,,,,
1764808596.623568,,,,,,,8.308887481689453e-05,0.42548495531082153,0.1586456447839737,-0.8517552614212036,0.6856454610824585,-2.1458802223205566
1764808596.628367,2.6733044327408075,1.3459265329331158,-1.496619637095183,1.4384045600891113,0.10864345729351044,1.7444674968719482,,,,,,
1764808596.633598,,,,,,,0.013419091701507568,0.4452208876609802,0.17823755741119385,-0.9765927791595459,0.7497855424880981,-2.2949187755584717
1764808596.638418,2.6334534838676453,1.4054764540106057,-1.6484820772975681,1.5554744005203247,0.1463090032339096,1.88611900806427,,,,,,
1764808596.643628,,,,,,,0.014876246452331543,0.4755166172981262,0.18710337579250336,-1.0448155403137207,0.8551194667816162,-2.4361555576324463
1764808596.648471,2.5331828453451393,1.2800608528375625,-1.637212495264411,1.644026279449463,0.18192531168460846,2.0075385570526123,,,,,,
1764808596.653658,,,,,,,0.01820552349090576,0.49335992336273193,0.17972683906555176,-1.0761324167251587,0.9637359380722046,-2.620102643966675
1764808596.658523,2.5686738454431293,1.224613106381893,-1.5750354405537246,1.7219687700271606,0.21551890671253204,2.125530958175659,,,,,,
1764808596.663688,,,,,,,0.030713140964508057,0.534306526184082,0.19123700261116028,-1.1022007465362549,1.0951956510543823,-2.8156580924987793
1764808596.668575,2.7190473622620104,1.4934522591054438,-1.5712147132217884,1.822752833366394,0.22100260853767395,2.2773215770721436,,,,,,
1764808596.673718,,,,,,,0.06299710273742676,0.5922720432281494,0.20900586247444153,-1.022837519645691,1.2252033948898315,-2.9750187397003174
1764808596.678627,2.912255812200904,1.9213082538306712,-1.6392250041306018,1.9363548755645752,0.19881917536258698,2.4711928367614746,,,,,,
1764808596.683748,,,,,,,0.10586327314376831,0.6143427491188049,0.2256702482700348,-0.9254413843154907,1.3343595266342163,-3.133652448654175
1764808596.688679,3.069840575572848,2.326363803204894,-1.6430658974677324,2.045055389404297,0.16413123905658722,2.6756393909454346,,,,,,
1764808596.693778,,,,,,,0.1437038779258728,0.6251181364059448,0.24800118803977966,-0.8401427268981934,1.4428497552871704,-3.2958407402038574
1764808596.698732,3.0971622977405784,2.5328917534440754,-1.6821341715306042,2.144899368286133,0.14095428586006165,2.8606393337249756,,,,,,
1764808596.703808,,,,,,,0.18003013730049133,0.6088741421699524,0.2528304159641266,-0.7437731623649597,1.5394995212554932,-3.4236626625061035
1764808596.708784,3.035360213822126,2.5328771403968333,-1.7263927077129482,2.2265725135803223,0.1334545612335205,3.0103204250335693,,,,,,
1764808596.713838,,,,,,,0.20757588744163513,0.5692993998527527,0.2558504641056061,-0.6584723591804504,1.6437420845031738,-3.536025047302246
1764808596.718836,2.8893858087450264,2.4361276617377996,-1.6265990390524268,2.2971267700195312,0.14942634105682373,3.1205596923828125,,,,,,
1764808596.723869,,,,,,,0.22041285037994385,0.5358418226242065,0.25541171431541443,-0.6045457720756531,1.747660517692566,-3.63114333152771
1764808596.728889,2.697801745137572,2.376711596173048,-1.5646180914357304,2.348273515701294,0.20346249639987946,3.2050514221191406,,,,,,
1764808596.733899,,,,,,,0.23875269293785095,0.49958425760269165,0.2524588406085968,-0.5492540001869202,1.8536947965621948,-3.69254994392395
1764808596.738941,2.5093612402528525,2.408265256822109,-1.5796484873071313,2.390906810760498,0.2664399743080139,3.2682876586914062,,,,,,
1764808596.743929,,,,,,,0.26467764377593994,0.4664965271949768,0.27288028597831726,-0.45454850792884827,1.976821780204773,-3.734755754470825
1764808596.748993,2.3686966320216656,2.5072680673658847,-1.5828057822942734,2.4473459720611572,0.30104801058769226,3.33518385887146,,,,,,
1764808596.753959,,,,,,,0.28521886467933655,0.472797691822052,0.2899457514286041,-0.31317031383514404,2.106590747833252,-3.793898582458496
1764808596.759045,2.321487137079239,2.661324656611681,-1.503314312428236,2.520700454711914,0.3085961937904358,3.4395294189453125,,,,,,
1764808596.763989,,,,,,,0.3129006028175354,0.5013469457626343,0.29431724548339844,-0.09930314123630524,2.2497198581695557,-3.8761403560638428
1764808596.769098,2.297749118617177,2.9878321544498205,-1.244152796371281,2.589592218399048,0.33051598072052,3.585576057434082,,,,,,
1764808596.774019,,,,,,,0.3495800793170929,0.5309902429580688,0.30125153064727783,0.11572261154651642,2.4025228023529053,-3.9739813804626465
1764808596.77915,2.1172078425496816,3.4177401132687923,-1.0727198326498268,2.646353006362915,0.40716680884361267,3.747659921646118,,,,,,
1764808596.784049,,,,,,,0.4069989323616028,0.5396931171417236,0.28171515464782715,0.34398353099823,2.5146989822387695,-4.059584617614746
1764808596.789202,1.7653204042613506,3.774758484704792,-1.0044453378468752,2.6892027854919434,0.5186479091644287,3.9072141647338867,,,,,,
1764808596.794079,,,,,,,0.47377902269363403,0.4945099949836731,0.25908371806144714,0.42429834604263306,2.5674140453338623,-4.175982475280762
1764808596.799255,1.233248248258233,3.991192911930382,-0.7656468108609318,2.7065911293029785,0.6364482641220093,4.034053325653076,,,,,,
1764808596.804109,,,,,,,0.5206998586654663,0.41461271047592163,0.2587534189224243,0.4026053845882416,2.6152329444885254,-4.247652053833008
1764808596.809307,0.6686544633567333,3.954472954559326,-0.5874737252295017,2.7066609859466553,0.7502080202102661,4.1021223068237305,,,,,,
1764808596.814139,,,,,,,0.5578718185424805,0.3052724003791809,0.23826047778129578,0.32031771540641785,2.6103403568267822,-4.2433905601501465
1764808596.819359,0.23767303008735177,3.6777500628486273,-0.6160235278874635,2.694032669067383,0.8518701791763306,4.1083550453186035,,,,,,
1764808596.824169,,,,,,,0.5673816800117493,0.20964831113815308,0.23574590682983398,0.23302088677883148,2.6492433547973633,-4.243016719818115
1764808596.829412,0.041725510573387144,3.2836765107378363,-0.6847510271549224,2.682816505432129,0.9057286977767944,4.064478874206543,,,,,,
1764808596.8342,,,,,,,0.552429735660553,0.16918951272964478,0.28103792667388916,0.18110069632530212,2.728003978729248,-4.2146220207214355
1764808596.839464,0.09969722254872322,3.1065602406829593,-0.6252011060774326,2.6912355422973633,0.8937093019485474,4.020753383636475,,,,,,
1764808596.84423,,,,,,,0.5518404245376587,0.1844642162322998,0.3146311640739441,0.258180171251297,2.767709732055664,-4.132164478302002
1764808596.849516,0.42903555989861486,3.3839418885633346,-0.6767986068457365,2.713956594467163,0.8613084554672241,4.021482944488525,,,,,,
1764808596.85426,,,,,,,0.5713865756988525,0.17050087451934814,0.2916095554828644,0.3105379343032837,2.7653579711914062,-4.069019794464111
1764808596.859568,0.757675393590331,3.9014892601296305,-0.8987477058395743,2.7174088954925537,0.81288081407547,4.047891616821289,,,,,,
1764808596.86429,,,,,,,0.5880080461502075,0.09548938274383545,0.26488861441612244,0.2544710338115692,2.7283899784088135,-3.989520311355591
1764808596.869622,0.8060989404976368,4.203648498652875,-0.9273296572014689,2.713480234146118,0.7163180708885193,4.046080112457275,,,,,,
1764808596.87432,,,,,,,0.5888442397117615,-0.021075427532196045,0.254765123128891,0.1456659734249115,2.7007689476013184,-3.8896474838256836
1764808596.879673,0.49938803001940246,4.015565721164643,-0.8560141872674226,2.7202703952789307,0.5509243011474609,3.981125593185425,,,,,,
1764808596.88435,,,,,,,0.560720682144165,-0.05122417211532593,0.2801649272441864,-0.042534902691841125,2.7288007736206055,-3.8420212268829346
1764808596.889725,0.10614274542629717,3.6025466455653308,-0.7381050162017345,2.742161512374878,0.34828367829322815,3.8857614994049072,,,,,,
1764808596.89438,,,,,,,0.5394735336303711,0.032838642597198486,0.28673720359802246,-0.1530936360359192,2.757524013519287,-3.7645583152770996
1764808596.899778,-0.016907295659184456,3.488807453660667,-0.6926376887515187,2.757935047149658,0.1791415512561798,3.815044641494751,,,,,,
1764808596.90441,,,,,,,0.5488251447677612,0.040684282779693604,0.22865667939186096,-0.20979495346546173,2.726653814315796,-3.6859560012817383
1764808596.90983,-0.03092763770520687,3.569417990684509,-0.5964160333588719,2.747330904006958,0.05474478378891945,3.759878158569336,,,,,,
1764808596.91444,,,,,,,0.5511279106140137,-0.040926992893218994,0.20437836647033691,-0.3976823091506958,2.721446990966797,-3.6420440673828125
1764808596.919882,-0.2392676058024168,3.5662390683874485,-0.40616351061612366,2.7233264446258545,-0.03597712889313698,3.6945409774780273,,,,,,
1764808596.92447,,,,,,,0.5436419248580933,-0.0802496075630188,0.21089529991149902,-0.5787491202354431,2.721653938293457,-3.5527641773223877
1764808596.929935,-0.5283633646130561,3.450518639537692,-0.3372445804297924,2.7147769927978516,-0.11412306129932404,3.6130330562591553,,,,,,
1764808596.934501,,,,,,,0.5326322317123413,-0.09153920412063599,0.19286152720451355,-0.6673879027366638,2.6889641284942627,-3.4337425231933594
1764808596.939987,-0.7628910824120044,3.29631445851475,-0.4566799381494522,2.7084500789642334,-0.17158421874046326,3.5181992053985596,,,,,,
1764808596.944531,,,,,,,0.5071815252304077,-0.09354984760284424,0.1658724546432495,-0.7239990830421448,2.692725658416748,-3.356881618499756
1764808596.950039,-0.8963339226961136,3.075440295276046,-0.541890662445128,2.6865999698638916,-0.22666090726852417,3.409853219985962,,,,,,
1764808596.954561,,,,,,,0.4732205867767334,-0.05240112543106079,0.1904585212469101,-0.8327460885047913,2.724043369293213,-3.326843738555908
1764808596.960091,-0.9754314248085021,2.971461449885368,-0.5554574155047536,2.657514810562134,-0.2717282176017761,3.316412925720215,,,,,,
1764808596.964591,,,,,,,0.4748547673225403,0.0015156865119934082,0.21812549233436584,-0.8510608673095703,2.7748799324035645,-3.196927547454834
1764808596.970145,-0.8678273746579885,3.148376059888303,-0.5882561077788472,2.638772964477539,-0.25948235392570496,3.249851942062378,,,,,,
1764808596.974621,,,,,,,0.4971221089363098,-0.018734455108642578,0.20352958142757416,-0.8133571743965149,2.7682313919067383,-3.0794687271118164
1764808596.980196,-0.7326970196783542,3.2863851851746437,-0.6789116534769535,2.62188982963562,-0.21166463196277618,3.20635724067688,,,,,,
1764808596.984651,,,,,,,0.4880126118659973,-0.03934943675994873,0.19630944728851318,-0.8376181125640869,2.7764956951141357,-3.0213840007781982
1764808596.990248,-0.7883364893138408,3.19121245431304,-0.6995268637433648,2.591233968734741,-0.17306238412857056,3.1615655422210693,,,,,,
1764808596.994681,,,,,,,0.4672735929489136,-0.022585749626159668,0.17751923203468323,-0.7912434339523315,2.79750657081604,-2.9214401245117188
1764808597.0003,-0.9803419932037591,2.964286443689465,-0.6005944880872964,2.5370595455169678,-0.16697536408901215,3.1052284240722656,,,,,,
1764808597.004711,,,,,,,0.4547947645187378,-0.009966433048248291,0.1463552862405777,-0.6783561110496521,2.7930383682250977,-2.821094036102295
1764808597.010353,-1.168060613554716,2.6842835073947904,-0.46508711648881434,2.462721586227417,-0.14106813073158264,3.0277340412139893,,,,,,
1764808597.014741,,,,,,,0.44073039293289185,-0.01220625638961792,0.09724855422973633,-0.5794486999511719,2.7511098384857178,-2.764862298965454
1764808597.020405,-1.2656798607856035,2.40488730482161,-0.4205512246698141,2.3852834701538086,-0.11322856694459915,2.9425480365753174,,,,,,
1764808597.024771,,,,,,,0.43186354637145996,-0.03744244575500488,0.08102057874202728,-0.5339229702949524,2.7103798389434814,-2.714506149291992
1764808597.030457,-1.326953536915779,2.178386826133728,-0.33248350350782274,2.2963764667510986,-0.1076979786157608,2.8569741249084473,,,,,,
1764808597.034801,,,,,,,0.4311635494232178,-0.03659951686859131,0.12139713764190674,-0.4624251127243042,2.7090072631835938,-2.625612735748291
1764808597.04051,-1.303227208891511,2.2417682881981134,-0.3285778743714094,2.2334632873535156,-0.08764464408159256,2.782702922821045,,,,,,
1764808597.044832,,,,,,,0.44144296646118164,-0.0279233455657959,0.14029492437839508,-0.42931097745895386,2.635263204574585,-2.6129748821258545
1764808597.050562,-1.1978455109655857,2.6307506546497343,-0.8099461174450814,2.186495304107666,-0.0642610639333725,2.7261528968811035,,,,,,
1764808597.054862,,,,,,,0.4649308919906616,-0.015500843524932861,0.198478564620018,-0.47981011867523193,2.6309962272644043,-2.5610480308532715
1764808597.060615,-1.0276239688605069,3.1834844904094934,-1.2019897711634635,2.1647751331329346,-0.060821324586868286,2.6944336891174316,,,,,,
1764808597.064892,,,,,,,0.47767752408981323,-0.048218369483947754,0.18923628330230713,-0.5161508321762085,2.544997453689575,-2.4859390258789062
1764808597.070667,-0.8470224870383739,3.557053014630079,-1.3456488850355148,2.146519899368286,-0.08872967213392258,2.678750991821289,,,,,,
1764808597.074922,,,,,,,0.46595191955566406,-0.11343234777450562,0.14162003993988037,-0.5917864441871643,2.479617118835449,-2.4338583946228027
1764808597.08072,-0.7423883926093577,3.374817794126272,-1.151812658587098,2.095919609069824,-0.1658095270395279,2.648254871368408,,,,,,
1764808597.084952,,,,,,,0.4309176802635193,-0.1434503197669983,0.10969340801239014,-0.6740010380744934,2.4395549297332764,-2.345949172973633
1764808597.090772,-0.8669020765066147,2.9321166969686745,-0.684384531930089,2.0173511505126953,-0.29350197315216064,2.5826449394226074,,,,,,
1764808597.094982,,,,,,,0.42478394508361816,-0.15658468008041382,0.07655715942382812,-0.7620382308959961,2.3245832920074463,-2.262970447540283
1764808597.100824,-1.1335364126622676,2.5038369238734246,-0.3442103277891874,1.9266161918640137,-0.41192299127578735,2.4736530780792236,,,,,,
1764808597.105012,,,,,,,0.4292755126953125,-0.18030616641044617,0.041516780853271484,-0.8534204959869385,2.2402708530426025,-2.1622049808502197
1764808597.110877,-1.4249638292908668,2.2589783661961556,-0.330607261307165,1.8350132703781128,-0.48181232810020447,2.337249755859375,,,,,,
1764808597.115042,,,,,,,0.43092650175094604,-0.20554226636886597,0.029935121536254883,-0.9512320160865784,2.1439719200134277,-2.0791046619415283
1764808597.120929,-1.7275129439145325,2.227536933749914,-0.25240933838300406,1.7494217157363892,-0.4882899224758148,2.185858726501465,,,,,,
1764808597.125072,,,,,,,0.4590280055999756,-0.16656866669654846,0.08730971813201904,-1.0383230447769165,2.09419322013855,-1.9527732133865356
1764808597.130981,-1.8717624248951672,2.536467858365178,-0.3517388966631144,1.7361499071121216,-0.4389800727367401,2.061269760131836,,,,,,
1764808597.135102,,,,,,,0.47460299730300903,-0.19382089376449585,0.05791163071990013,-1.121875524520874,1.9842493534088135,-1.8201614618301392
1764808597.141033,-1.7726625837177037,3.1998984495937823,-0.5047844091702253,1.7275081872940063,-0.43654167652130127,1.9699506759643555,,,,,,
1764808597.145132,,,,,,,0.4610479474067688,-0.26386934518814087,-0.002931654453277588,-1.2343415021896362,1.8981802463531494,-1.7201083898544312
1764808597.151086,-1.6968161923557519,3.35854002854228,-0.008968940407969058,1.6679818630218506,-0.519407331943512,1.8769620656967163,,,,,,
1764808597.155163,,,,,,,0.44315701723098755,-0.24196937680244446,-0.06677478551864624,-1.1988658905029297,1.8383355140686035,-1.5793399810791016
1764808597.161138,-1.8258897315144538,3.0227152517825364,0.6757452984005212,1.5467134714126587,-0.591049075126648,1.7623568773269653,,,,,,
1764808597.165193,,,,,,,0.4487507939338684,-0.18800970911979675,-0.13496214151382446,-1.0875585079193115,1.6761716604232788,-1.5018839836120605
1764808597.17119,-2.116675343108177,2.6265841826200482,1.0651672253131865,1.4053875207901,-0.6093130707740784,1.6190555095672607,,,,,,
1764808597.175223,,,,,,,0.479844868183136,-0.15657487511634827,-0.16224652528762817,-1.001356840133667,1.5338020324707031,-1.4235939979553223
1764808597.181243,-2.3745699079692364,2.4888930372416973,1.0509914004445076,1.277179479598999,-0.5870964527130127,1.4656827449798584,,,,,,
1764808597.185253,,,,,,,0.49630510807037354,-0.19569483399391174,-0.20354574918746948,-0.9286088347434998,1.3862048387527466,-1.2735871076583862
1764808597.191295,-2.4656992086589335,2.717092136541009,1.0402285988897084,1.1626486778259277,-0.5727283954620361,1.3106876611709595,,,,,,
1764808597.195283,,,,,,,0.48915308713912964,-0.2393995225429535,-0.22212207317352295,-0.8996434807777405,1.232871413230896,-1.1556594371795654
1764808597.201347,-2.4339739908352493,2.696228212210536,1.1507418144851922,1.0661176443099976,-0.563847005367279,1.1606744527816772,,,,,,
1764808597.205313,,,,,,,0.45361483097076416,-0.2549823522567749,-0.21911634504795074,-0.8791499137878418,1.1361638307571411,-0.9891741871833801
1764808597.2114,-2.353829610018432,2.541348616144061,1.1927917347073553,0.9581190347671509,-0.5496688485145569,1.000957727432251,,,,,,
1764808597.215343,,,,,,,0.430867075920105,-0.2594396770000458,-0.21417880058288574,-0.8080890774726868,1.0022222995758057,-0.8305278420448303
1764808597.221452,-2.3384029083058238,2.4030478144347667,1.3307669577240944,0.8487752079963684,-0.5273637771606445,0.8389338254928589,,,,,,
1764808597.225373,,,,,,,0.4289513826370239,-0.22981500625610352,-0.2005954384803772,-0.7034145593643188,0.8625757694244385,-0.6784744262695312
1764808597.231504,-2.2741791501983997,2.3863567918747663,1.228764380842447,0.7555988430976868,-0.4764863848686218,0.6716768741607666,,,,,,
1764808597.235403,,,,,,,0.4236857295036316,-0.2240905463695526,-0.21395106613636017,-0.6300327777862549,0.7182217836380005,-0.5230308175086975
1764808597.241556,-2.2061969163402915,2.462948448646068,1.0772598141670227,0.6763657927513123,-0.4267007112503052,0.5081174969673157,,,,,,
1764808597.245433,,,,,,,0.4184642434120178,-0.2550317943096161,-0.20298796892166138,-0.604647159576416,0.5804458260536194,-0.38126617670059204
1764808597.251609,-2.160810837432742,2.36415548146069,1.1022820272207259,0.607833743095398,-0.41482216119766235,0.34063035249710083,,,,,,
1764808597.255464,,,,,,,0.4013153314590454,-0.2790548503398895,-0.18646395206451416,-0.5757220387458801,0.46998560428619385,-0.21940642595291138
1764808597.261661,-2.1097513890638946,2.270771679842472,1.106909102499485,0.5366027355194092,-0.4362259805202484,0.1680023968219757,,,,,,
1764808597.265494,,,,,,,0.38515859842300415,-0.26541242003440857,-0.1976185441017151,-0.5286619067192078,0.35031858086586,-0.08213020116090775
1764808597.271713,-2.1109844379901883,2.3982009589254853,1.1685131065625696,0.4460977017879486,-0.451063334941864,0.003477975958958268,,,,,,
1764808597.275524,,,,,,,0.3906611204147339,-0.21826675534248352,-0.23258082568645477,-0.47768980264663696,0.21231411397457123,0.03583904355764389
1764808597.281766,-1.9908838943600653,2.474447163259983,1.3287164549350738,0.3213967978954315,-0.45729511976242065,-0.1369481086730957,,,,,,
1764808597.285554,,,,,,,0.4237719774246216,-0.1934247612953186,-0.27060776948928833,-0.43195030093193054,0.049058880656957626,0.16348522901535034
1764808597.291818,-1.8596575610816477,2.42709972115159,1.6693290504932403,0.18327097594738007,-0.4462569057941437,-0.26769641041755676,,,,,,
1764808597.295584,,,,,,,0.4467734694480896,-0.19633159041404724,-0.2958976626396179,-0.4348158836364746,-0.11177847534418106,0.28149786591529846
1764808597.30187,-1.7923115793004631,2.449541854584217,1.8523942920804022,0.04320494085550308,-0.4343416690826416,-0.4079025089740753,,,,,,
1764808597.305614,,,,,,,0.45472437143325806,-0.2042897343635559,-0.31742340326309204,-0.43655088543891907,-0.26776939630508423,0.4126281440258026
1764808597.311922,-1.8322385160192847,2.4542905104160306,1.959213329333067,-0.10366721451282501,-0.42818206548690796,-0.5508631467819214,,,,,,
1764808597.315644,,,,,,,0.45585787296295166,-0.18505272269248962,-0.3259166479110718,-0.4090878367424011,-0.42627328634262085,0.527410089969635
1764808597.321975,-1.8744342744529245,2.418396190214157,2.051646113836765,-0.25363513827323914,-0.40092116594314575,-0.7022955417633057,,,,,,
1764808597.325674,,,,,,,0.4520643949508667,-0.15659499168395996,-0.31990712881088257,-0.3554192781448364,-0.5824863314628601,0.6380053758621216
1764808597.332027,-1.8878201179876923,2.3974030865460634,2.0624001475632188,-0.39309826493263245,-0.3600092828273773,-0.8452687859535217,,,,,,
1764808597.335704,,,,,,,0.4595159888267517,-0.14628085494041443,-0.29355865716934204,-0.2644757926464081,-0.7103396058082581,0.77098149061203
1764808597.342079,-1.8666522422745824,2.56546540479064,2.0387749418258667,-0.5057321190834045,-0.2968686819076538,-0.9860679507255554,,,,,,
1764808597.345734,,,,,,,0.4683886766433716,-0.14788910746574402,-0.27369368076324463,-0.11570832133293152,-0.8297024965286255,0.9105863571166992
1764808597.352132,-1.8618293521627782,2.8990689983695743,2.019378167438507,-0.6108903884887695,-0.21658441424369812,-1.1291757822036743,,,,,,
1764808597.355764,,,,,,,0.4842498302459717,-0.13507488369941711,-0.27472519874572754,0.08996627479791641,-0.9552436470985413,1.056054711341858
1764808597.362184,-1.973834267620742,3.206745539009571,2.095742445194721,-0.7153315544128418,-0.12443158030509949,-1.2729952335357666,,,,,,
1764808597.365795,,,,,,,0.511947751045227,-0.10894224047660828,-0.28195708990097046,0.33406615257263184,-1.086438775062561,1.1973373889923096
1764808597.372236,-2.1421464689731597,3.387816976431012,2.167442822793126,-0.8205995559692383,-0.026738520711660385,-1.4168920516967773,,,,,,
1764808597.375825,,,,,,,0.5319857597351074,-0.10183444619178772,-0.296194851398468,0.5770431756973267,-1.2173770666122437,1.344631314277649
1764808597.382288,-2.242820427599549,3.3360137239575383,2.1842647782564164,-0.9325082302093506,0.07809441536664963,-1.5706381797790527,,,,,,
1764808597.385855,,,,,,,0.5257867574691772,-0.10697793960571289,-0.3071667551994324,0.7975889444351196,-1.337209939956665,1.505758285522461
1764808597.392341,-2.3283096765756603,3.175700412404537,2.238969012868404,-1.0627665519714355,0.18575185537338257,-1.7359949350357056,,,,,,
1764808597.395885,,,,,,,0.521183967590332,-0.12649238109588623,-0.3176805377006531,1.016660213470459,-1.4603548049926758,1.6900898218154907
1764808597.402393,-2.391159223720431,3.035544922739267,2.307190900701284,-1.1967430114746094,0.2849580645561218,-1.91244375705719,,,,,,
1764808597.405915,,,,,,,0.530632734298706,-0.16657549142837524,-0.3105694055557251,1.212764024734497,-1.584735631942749,1.8843104839324951
1764808597.412445,-2.4781039322018623,2.9489094263374804,2.2241256640017033,-1.3350558280944824,0.39041686058044434,-2.110283613204956,,,,,,
1764808597.415945,,,,,,,0.5440046787261963,-0.19427141547203064,-0.29127079248428345,1.356855869293213,-1.6889374256134033,2.0854759216308594
1764808597.422498,-2.6245383560061453,2.953816487601399,2.088662716066837,-1.4806808233261108,0.4965934455394745,-2.3166589736938477,,,,,,
1764808597.425975,,,,,,,0.5770882368087769,-0.1886635422706604,-0.25665849447250366,1.446745753288269,-1.7856404781341553,2.278992176055908
1764808597.43255,-2.716677125999331,3.218547620484233,1.980330351641774,-1.6223119497299194,0.5949878692626953,-2.512155532836914,,,,,,
1764808597.436005,,,,,,,0.6281476020812988,-0.17176425457000732,-0.22468072175979614,1.4756972789764404,-1.9016475677490234,2.471193552017212
1764808597.442602,-2.6703075890123844,3.736751994654536,1.8270073373675346,-1.7397047281265259,0.6839361190795898,-2.6808207035064697,,,,,,
1764808597.446035,,,,,,,0.6736146807670593,-0.17364096641540527,-0.20387881994247437,1.4527029991149902,-2.0675909519195557,2.6666228771209717
1764808597.452655,-2.4561077889710665,4.147838056364655,1.4694365927457809,-1.819291353225708,0.7425978779792786,-2.814596652984619,,,,,,
1764808597.456065,,,,,,,0.6578995585441589,-0.2122003436088562,-0.15803313255310059,1.385255217552185,-2.229928970336914,2.850856304168701
1764808597.462707,-2.1325012732714415,3.9300416931360957,0.9388830246120691,-1.8751769065856934,0.7695624232292175,-2.9512481689453125,,,,,,
1764808597.466095,,,,,,,0.5690522789955139,-0.23479700088500977,-0.09711301326751709,1.286400318145752,-2.263106107711792,3.0365564823150635
1764808597.472759,-1.9083277762264013,3.4126690936148165,0.6055798752844334,-1.9266475439071655,0.762647807598114,-3.108053207397461,,,,,,
1764808597.476126,,,,,,,0.5000397562980652,-0.2314886450767517,-0.050209999084472656,1.220690369606018,-2.2630155086517334,3.2244338989257812
1764808597.482811,-1.8142174138993024,3.1265216632157564,0.6194885736495256,-1.9712921380996704,0.7195436358451843,-3.2829465866088867,,,,,,
1764808597.486156,,,,,,,0.5004269480705261,-0.2407335638999939,-0.022510647773742676,1.1504203081130981,-2.3025496006011963,3.4060769081115723
1764808597.492864,-1.7405401832699774,3.1207524321645495,0.6769851423937827,-2.0148067474365234,0.6502646803855896,-3.465359926223755,,,,,,
1764808597.496186,,,,,,,0.5403649210929871,-0.2745278477668762,-0.010425806045532227,1.0925300121307373,-2.3155667781829834,3.6005282402038574
1764808597.502916,-1.7262889550775289,3.331701121455431,0.8411592940934002,-2.064032793045044,0.5611552596092224,-3.6387507915496826,,,,,,
1764808597.506216,,,,,,,0.5968340635299683,-0.293795108795166,0.0004024505615234375,1.044487714767456,-2.295567512512207,3.7864387035369873
1764808597.512968,-1.8922715444386005,3.7344238439679143,1.083714104872942,-2.1043357849121094,0.4789751470088959,-3.7992045879364014,,,,,,
1764808597.516246,,,,,,,0.6610695123672485,-0.2584044933319092,0.02181660383939743,1.0688347816467285,-2.234941005706787,3.94953989982605
1764808597.523021,-2.185001860359311,4.309206429928541,1.3102765428811312,-2.117929458618164,0.4531688392162323,-3.929994583129883,,,,,,
1764808597.526276,,,,,,,0.7140973210334778,-0.17949575185775757,0.0723118782043457,1.197922706604004,-2.1915383338928223,4.1002044677734375
1764808597.533073,-2.4540654694885013,4.920599375405907,1.195195434848219,-2.093214273452759,0.5531383156776428,-4.010077953338623,,,,,,
1764808597.536306,,,,,,,0.7380681037902832,-0.07203882932662964,0.14356255531311035,1.4541465044021606,-2.199892997741699,4.236711025238037
1764808597.543125,-2.624171276259422,5.369453149974346,0.5060574247807264,-2.0574522018432617,0.7847803831100464,-4.039299488067627,,,,,,
1764808597.546336,,,,,,,0.7221475839614868,0.034973740577697754,0.17574739456176758,1.740771770477295,-2.218255043029785,4.37713098526001
1764808597.553177,-2.7247359292924402,5.58757509189546,-0.5173575480826199,-2.0005013942718506,1.0584487915039062,-4.083892822265625,,,,,,
1764808597.556366,,,,,,,0.6807897090911865,0.08981359004974365,0.17926025390625,2.055954933166504,-2.2719814777374268,4.4777350425720215
1764808597.56323,-2.6788819406121966,5.375424625599384,-1.4412569385744631,-2.0088284015655518,1.3201260566711426,-4.164689540863037,,,,,,
1764808597.566396,,,,,,,0.6242810487747192,0.07111281156539917,0.2030649185180664,2.3523402214050293,-2.2055749893188477,4.64506721496582
1764808597.573282,-2.332814586779475,4.9821758338749405,-1.643086940255761,-2.080874443054199,1.5476393699645996,-4.294918537139893,,,,,,
1764808597.576426,,,,,,,0.5801054239273071,0.018483459949493408,0.2324082851409912,2.6059813499450684,-2.0445821285247803,4.828664779663086
1764808597.583334,-1.87662506249547,4.6303570769086475,-1.428968534887582,-2.1596555709838867,1.6890721321105957,-4.457919120788574,,,,,,
1764808597.586457,,,,,,,0.5767673254013062,-0.042375802993774414,0.2688291072845459,2.7075552940368652,-1.8757450580596924,4.941300392150879
1764808597.593387,-1.4541110133200883,4.573854852963984,-1.1204397613324224,-2.1783742904663086,1.7262108325958252,-4.631930828094482,,,,,,
1764808597.596487,,,,,,,0.6107293367385864,-0.08280450105667114,0.32060253620147705,2.7185845375061035,-1.6598693132400513,5.102262496948242
1764808597.603439,-1.1569827547013758,4.873283789740502,-0.8837244703613221,-2.1209821701049805,1.680452585220337,-4.785261154174805,,,,,,
1764808597.606517,,,,,,,0.6575472354888916,-0.1111791729927063,0.3200502395629883,2.7645018100738525,-1.4685131311416626,5.321120262145996
1764808597.613491,-0.9745254158794879,5.334729042595624,-0.7453600288312882,-2.0118565559387207,1.568593978881836,-4.894728660583496,,,,,,
1764808597.616547,,,,,,,0.6782170534133911,-0.09135162830352783,0.3182312250137329,2.7483091354370117,-1.3338123559951782,5.513146877288818
1764808597.623544,-0.8362024023383855,5.5929410028427835,-0.6580979980289936,-1.8823394775390625,1.4489288330078125,-4.988342761993408,,,,,,
1764808597.626577,,,,,,,0.6626360416412354,-0.04036581516265869,0.26932787895202637,2.541372776031494,-1.2208328247070312,5.558604717254639
1764808597.633596,-0.7574141123056412,5.47235764413178,-0.774296931110695,-1.7900983095169067,1.3157564401626587,-5.085895538330078,,,,,,
1764808597.636607,,,,,,,0.6417030096054077,-0.05194664001464844,0.20618802309036255,2.267155647277832,-1.0541644096374512,5.62652063369751
1764808597.643648,-0.5926759700477123,5.233589220023155,-0.5245177951008081,-1.7849031686782837,1.1450278759002686,-5.1856818199157715,,,,,,
1764808597.646637,,,,,,,0.6459003686904907,-0.12574487924575806,0.19783765077590942,2.0657742023468018,-0.7937431931495667,5.773660182952881
1764808597.6537,-0.287725639501214,4.960196641778945,0.013505378261208534,-1.8349055051803589,0.9612955451011658,-5.297062873840332,,,,,,
1764808597.656667,,,,,,,0.678050696849823,-0.12242436408996582,0.22822755575180054,1.7415772676467896,-0.5938513875007629,5.740262985229492
1764808597.663753,-0.013529343658685683,4.781992284226417,0.12284666400048881,-1.884821891784668,0.7757483124732971,-5.413641452789307,,,,,,
1764808597.666697,,,,,,,0.7225722670555115,0.0066291093826293945,0.24818174540996552,1.5231146812438965,-0.41856130957603455,5.631176948547363
1764808597.673805,0.2509101128011942,4.989265499874949,-0.05752042454387992,-1.9140304327011108,0.5743166208267212,-5.480243682861328,,,,,,
1764808597.676727,,,,,,,0.7835829257965088,0.09307324886322021,0.22653836011886597,1.6511602401733398,-0.23617392778396606,5.777690410614014
1764808597.683857,0.5440075084686279,5.524252082020044,-0.20021281227562576,-1.924185872077942,0.3749736547470093,-5.456341743469238,,,,,,
1764808597.686758,,,,,,,0.8290612697601318,0.15116900205612183,0.19425487518310547,1.871859073638916,-0.1739257276058197,5.897648334503174
1764808597.69391,0.7397504453212023,5.887375784593821,-0.4065922939548269,-1.944748044013977,0.21154837310314178,-5.364569187164307,,,,,,
1764808597.696788,,,,,,,0.814860463142395,0.2472982406616211,0.20102201402187347,2.1120564937591553,-0.11578387022018433,5.840367317199707
1764808597.703962,0.7400134801715612,5.97001373579204,-0.636295331543684,-1.981034517288208,0.11833825707435608,-5.246502876281738,,,,,,
1764808597.706818,,,,,,,0.7797235250473022,0.33497512340545654,0.23424871265888214,2.4165728092193604,0.043940551578998566,5.860457420349121
1764808597.714014,0.7088198850065469,5.973485211294889,-0.968147113019228,-2.0032687187194824,0.11419855058193207,-5.156116008758545,,,,,,
1764808597.716848,,,,,,,0.758190393447876,0.36450690031051636,0.27886930108070374,2.788483142852783,0.19866089522838593,5.9836201667785645
1764808597.724067,0.8299673073410987,5.986671440604328,-1.525336174622178,-1.9825347661972046,0.17747600376605988,-5.1168084144592285,,,,,,
1764808597.726878,,,,,,,0.7333850860595703,0.34889453649520874,0.3255298137664795,3.110460042953491,0.34665942192077637,6.060212135314941
1764808597.734119,1.1441484075695276,5.953797929528355,-2.1310428911566732,-1.9505882263183594,0.22630959749221802,-5.132290363311768,,,,,,
1764808597.736908,,,,,,,0.6945827007293701,0.35314786434173584,0.3591015934944153,3.4888322353363037,0.6191964149475098,6.124368667602539
1764808597.744171,1.661153342822194,5.901539334502816,-2.386664834910631,-1.9141924381256104,0.17312946915626526,-5.166367530822754,,,,,,
1764808597.746938,,,,,,,0.6631650924682617,0.37714868783950806,0.3660014271736145,3.8950858116149902,0.9347583651542664,6.217169284820557
1764808597.754223,2.2908885851979255,5.80141950262785,-2.4986276647925374,-1.8636775016784668,0.0073369331657886505,-5.201314449310303,,,,,,
1764808597.756968,,,,,,,0.662248969078064,0.41476142406463623,0.36115992069244385,4.222198963165283,1.199444055557251,6.325350284576416
1764808597.764276,2.733119726756215,5.590649092513322,-2.682788300400972,-1.8368264436721802,-0.26697584986686707,-5.216432571411133,,,,,,
1764808597.766998,,,,,,,0.6838366389274597,0.4297814965248108,0.3423682451248169,4.320849895477295,1.4122287034988403,6.39828634262085
1764808597.774328,2.9202327824294567,5.42518906572163,-2.603410227781534,-1.848880648612976,-0.6313551068305969,-5.211254596710205,,,,,,
1764808597.777028,,,,,,,0.7171375751495361,0.40799736976623535,0.3268841803073883,4.067337989807129,1.5909100770950317,6.374932289123535
1764808597.78438,2.8872704240262506,5.292886043122411,-2.397396656805277,-1.86831533908844,-1.0219073295593262,-5.191556453704834,,,,,,
1764808597.787058,,,,,,,0.7598483562469482,0.3642665147781372,0.3191084563732147,3.633680820465088,1.8067775964736938,6.277817249298096
1764808597.794433,2.715884514316916,5.214930112260579,-2.164734732878208,-1.89664888381958,-1.4017540216445923,-5.147637844085693,,,,,,
1764808597.797089,,,,,,,0.8031231760978699,0.3338777422904968,0.29346713423728943,2.9429612159729004,2.0090432167053223,6.141986846923828
1764808597.804485,2.474193480759859,5.393548311311006,-1.862985828721523,-1.9462369680404663,-1.7220652103424072,-5.090043544769287,,,,,,
1764808597.807119,,,,,,,0.856415331363678,0.36282920837402344,0.28960829973220825,2.0015580654144287,2.0324792861938477,5.9685797691345215
1764808597.814537,2.015816091042757,5.603090056413412,-1.6018506745040415,-2.0178699493408203,-1.9110283851623535,-5.041078090667725,,,,,,
1764808597.817149,,,,,,,0.9169621467590332,0.32551878690719604,0.31193244457244873,1.1484493017196655,2.0309488773345947,5.789157867431641
1764808597.824589,1.4203414301872253,5.744041080370545,-1.5306278512895106,-2.1051368713378906,-1.977952480316162,-4.999807357788086,,,,,,
1764808597.827179,,,,,,,0.9391945004463196,0.2448730766773224,0.3417827785015106,0.24090734124183655,2.080864429473877,5.627923488616943
1764808597.834642,0.8158399977892636,5.892732927712798,-1.518536431479454,-2.182561159133911,-1.9460500478744507,-5.011731147766113,,,,,,
1764808597.837209,,,,,,,0.9275374412536621,0.20804396271705627,0.3793635368347168,-0.46615979075431824,2.2101316452026367,5.455119609832764
1764808597.844694,0.1850730742782354,5.955648525831103,-1.535629020577669,-2.255354881286621,-1.872065544128418,-5.084535598754883,,,,,,
1764808597.847239,,,,,,,0.9086194634437561,0.21763905882835388,0.3742372989654541,-0.8903197646141052,2.3731348514556885,5.313056945800781
1764808597.854746,-0.13434095816761255,6.093518534907698,-1.4109399801135063,-2.322894334793091,-1.823108434677124,-5.165381908416748,,,,,,
1764808597.857269,,,,,,,0.9230614900588989,0.2861497104167938,0.3398377299308777,-1.3075708150863647,2.4475162029266357,5.170593738555908
1764808597.864799,-0.041992929337918754,6.324080271685123,-1.1063608940321952,-2.391576051712036,-1.8447233438491821,-5.20596981048584,,,,,,
1764808597.867299,,,,,,,0.9714472889900208,0.3389008939266205,0.3054620623588562,-1.7865827083587646,2.455345630645752,4.971036911010742
1764808597.874851,0.3997437067016959,6.631803574076295,-0.7259352704584598,-2.465620517730713,-1.9549020528793335,-5.157309532165527,,,,,,
1764808597.877329,,,,,,,1.0391242504119873,0.3236330449581146,0.2513175308704376,-2.3480277061462402,2.4227657318115234,4.75746488571167
1764808597.884903,1.0762073825046419,7.238383566313981,-0.4294822076875716,-2.4728028774261475,-2.143190860748291,-5.037642478942871,,,,,,
1764808597.887359,,,,,,,1.1143255233764648,0.31256580352783203,0.20674481987953186,-2.8322105407714844,2.2407238483428955,4.5720624923706055
1764808597.894956,1.5627414839088916,7.431144857007265,-0.7500796777643263,-2.3921854496002197,-2.36598539352417,-4.871315002441406,,,,,,
1764808597.89739,,,,,,,1.1186573505401611,0.35355812311172485,0.17972183227539062,-3.104173183441162,2.0251049995422363,4.414954662322998
1764808597.905008,1.8782260679513214,7.040884725704789,-1.0758479015424847,-2.3003437519073486,-2.5964150428771973,-4.670163154602051,,,,,,
1764808597.90742,,,,,,,1.0278878211975098,0.45417147874832153,0.18322770297527313,-3.2536280155181885,1.9748936891555786,4.2589945793151855
1764808597.91506,2.0336258884996177,6.597137918886542,-0.9939211673535406,-2.242170572280884,-2.772256374359131,-4.475917816162109,,,,,,
1764808597.91745,,,,,,,0.9389438033103943,0.5491446256637573,0.2011510729789734,-3.420100450515747,1.9557298421859741,4.088274002075195
1764808597.925112,1.7924223461985587,6.461493769165873,-0.981289795447886,-2.1790707111358643,-2.835057258605957,-4.311838626861572,,,,,,
1764808597.92748,,,,,,,0.9210574626922607,0.5696410536766052,0.21524254977703094,-3.5603108406066895,1.8693861961364746,3.887401580810547
1764808597.935165,1.2768527044460176,6.514754819232225,-1.2446087234452365,-2.106340169906616,-2.810703754425049,-4.142955303192139,,,,,,
1764808597.93751,,,,,,,0.9126018285751343,0.569263219833374,0.21894735097885132,-3.627302408218384,1.8380855321884155,3.6949286460876465
1764808597.945217,0.9076808077491819,6.867887873667478,-1.198820201216638,-2.022265911102295,-2.732116460800171,-3.967883586883545,,,,,,
1764808597.94754,,,,,,,0.9037057757377625,0.590589702129364,0.20518654584884644,-3.6626148223876953,1.7864677906036377,3.5053696632385254
1764808597.955269,0.5690007876887917,7.192884382420778,-1.1966449030041695,-1.9343055486679077,-2.6229500770568848,-3.7900772094726562,,,,,,
1764808597.95757,,,,,,,0.9058255553245544,0.6249669194221497,0.19243162870407104,-3.6966772079467773,1.6661866903305054,3.2819812297821045
1764808597.965322,0.34850210669897497,7.328774031335115,-1.294039986090362,-1.8530819416046143,-2.51473069190979,-3.607584238052368,,,,,,
1764808597.9676,,,,,,,0.8953913450241089,0.642969012260437,0.18829697370529175,-3.694263219833374,1.506098985671997,3.094722032546997
1764808597.975374,0.21747001735102384,7.195049451500177,-1.5255667685076593,-1.7479954957962036,-2.3754565715789795,-3.4514379501342773,,,,,,
1764808597.97763,,,,,,,0.8554396629333496,0.6142318844795227,0.21432799100875854,-3.5292038917541504,1.4113072156906128,2.9720654487609863
1764808597.985426,0.019274070456298066,6.709986299431324,-2.0821309762105344,-1.6609220504760742,-2.139725923538208,-3.3415796756744385,,,,,,
1764808597.98766,,,,,,,0.7604096531867981,0.6125295758247375,0.2481313943862915,-3.3349499702453613,1.4020432233810425,2.8651905059814453
1764808597.995479,-0.003805237501859665,6.323358387151361,-2.469427873793244,-1.6016933917999268,-1.828087329864502,-3.268350124359131,,,,,,
1764808597.99769,,,,,,,0.6760324835777283,0.6091119050979614,0.2534998655319214,-3.0941104888916016,1.4571096897125244,2.7538657188415527
1764808598.005531,0.1898416769195348,6.102800742515921,-2.594482532699406,-1.567919135093689,-1.5639182329177856,-3.203268051147461,,,,,,
1764808598.007721,,,,,,,0.6510034203529358,0.5951192378997803,0.23560011386871338,-2.9938254356384277,1.4766042232513428,2.6452994346618652
1764808598.015583,0.48419703675881026,6.10492840219438,-2.4620976770356298,-1.5359960794448853,-1.390559196472168,-3.1447715759277344,,,,,,
1764808598.017751,,,,,,,0.681365430355072,0.5671672224998474,0.22184288501739502,-2.71498966217041,1.406041145324707,2.6035327911376953
1764808598.025635,0.7957568485729396,6.124468968966603,-2.568139300175011,-1.4783751964569092,-1.3492523431777954,-3.10679292678833,,,,,,
1764808598.027781,,,,,,,0.6941756010055542,0.5223316550254822,0.18277740478515625,-2.557691812515259,1.280826210975647,2.5564239025115967
1764808598.035688,1.1215207615021616,5.777835213422775,-2.6318434183225032,-1.47769296169281,-1.4555350542068481,-3.0702450275421143,,,,,,
1764808598.037811,,,,,,,0.6632670164108276,0.5437347888946533,0.11487460136413574,-2.23432993888855,1.2404353618621826,2.5324649810791016
1764808598.04574,1.7167546724043785,5.445589464193582,-2.3043866569355127,-1.512429118156433,-1.5915502309799194,-3.0285677909851074,,,,,,
1764808598.047841,,,,,,,0.6479960083961487,0.5422511696815491,-0.022934440523386,-1.9451940059661865,1.128936529159546,2.6058998107910156
1764808598.055792,2.1220663884967563,4.9070793840974565,-2.561124745237827,-1.579990267753601,-1.6362098455429077,-2.951655149459839,,,,,,
1764808598.057871,,,,,,,0.6510193943977356,0.5858592987060547,-0.04949808493256569,-1.8069132566452026,0.9198129773139954,2.621335029602051
1764808598.065845,2.52265297576338,4.391627523505687,-2.873711269751191,-1.650588870048523,-1.5775264501571655,-2.8184304237365723,,,,,,
1764808598.067901,,,,,,,0.6226614117622375,0.5608282089233398,-0.0005786456167697906,-1.7048892974853516,0.7943359613418579,2.6081206798553467
1764808598.075897,2.8460709831535813,4.293246059730649,-3.028940702168643,-1.6598557233810425,-1.48777174949646,-2.685361623764038,,,,,,
1764808598.077931,,,,,,,0.55231112241745,0.5299274921417236,0.05003464221954346,-1.7763389348983765,0.7425654530525208,2.595903158187866
1764808598.085949,2.7654800276130436,4.2151434138745065,-3.1289006673067807,-1.6268607378005981,-1.4384169578552246,-2.587282657623291,,,,,,
1764808598.087961,,,,,,,0.473294198513031,0.5329556465148926,0.07034063339233398,-1.8892474174499512,0.7363997101783752,2.572597026824951
1764808598.096002,2.6528970200061797,4.202717647543549,-2.941597057497501,-1.5930829048156738,-1.5082755088806152,-2.505794048309326,,,,,,
1764808598.097991,,,,,,,0.4291611909866333,0.5086584091186523,0.038438912481069565,-2.0540363788604736,0.74395751953125,2.539851665496826
1764808598.106054,2.640005974251032,4.102727579528093,-2.583999132607877,-1.5757976770401,-1.6742238998413086,-2.435678482055664,,,,,,
1764808598.108021,,,,,,,0.4334016442298889,0.47460871934890747,0.0183107852935791,-2.1970560550689697,0.6587784290313721,2.52683162689209
1764808598.116106,2.6143320192903277,3.6918940312743187,-2.466651102556288,-1.5820670127868652,-1.877191185951233,-2.369680881500244,,,,,,
1764808598.118052,,,,,,,0.4389840364456177,0.4512583613395691,0.04727303981781006,-2.29069185256958,0.5380525588989258,2.46331524848938
1764808598.126158,2.661566940934956,3.1769618106424806,-2.334418514844775,-1.5830488204956055,-2.0592055320739746,-2.327191114425659,,,,,,
1764808598.128082,,,,,,,0.4092051386833191,0.45918628573417664,0.09557485580444336,-2.283438205718994,0.443745493888855,2.3996002674102783
1764808598.136211,2.495596042011678,2.84653976970911,-2.3648691826879977,-1.5369583368301392,-2.14312481880188,-2.313183069229126,,,,,,
1764808598.138112,,,,,,,0.3662641644477844,0.46497535705566406,0.16651439666748047,-2.2308599948883057,0.40843382477760315,2.3443946838378906
1764808598.146263,2.1224790609508752,2.9079332728266714,-2.529969728517532,-1.4787291288375854,-2.1482491493225098,-2.279038429260254,,,,,,
1764808598.148142,,,,,,,0.3205687999725342,0.4763081669807434,0.17395532131195068,-2.250317096710205,0.45277732610702515,2.255685806274414
1764808598.156315,1.7696710006862877,3.317366306632757,-2.282723983442783,-1.4167160987854004,-2.120823383331299,-2.2242558002471924,,,,,,
1764808598.158172,,,,,,,0.3099910020828247,0.4460098147392273,0.12505817413330078,-2.3399672508239746,0.46306803822517395,2.1660265922546387
1764808598.166368,1.2693383832931517,3.3517356092244386,-2.0955594898432492,-1.3668686151504517,-2.052236318588257,-2.149705171585083,,,,,,
1764808598.168202,,,,,,,0.3209494352340698,0.43391305208206177,0.0706183910369873,-2.401599645614624,0.3411341607570648,2.0875816345214844
1764808598.17642,0.8969123071059584,2.7451953644752503,-2.107854323270917,-1.3495038747787476,-1.8964383602142334,-2.064250946044922,,,,,,
1764808598.178232,,,,,,,0.2961852550506592,0.4465264081954956,0.027788996696472168,-2.3900790214538574,0.21803246438503265,2.0026752948760986
1764808598.186472,0.8275929794251918,1.7732734090924263,-2.1366449489474295,-1.388466238975525,-1.6103960275650024,-1.9822165966033936,,,,,,
1764808598.188262,,,,,,,0.2237764596939087,0.48391401767730713,0.011432886123657227,-2.140109062194824,0.20336270332336426,1.9952518939971924
1764808598.196525,0.9171393948376179,1.1351105301111937,-2.2755670974254607,-1.4342070817947388,-1.2281194925308228,-1.927828311920166,,,,,,
1764808598.198292,,,,,,,0.15422868728637695,0.46853023767471313,0.00810009241104126,-1.8440117835998535,0.2877342998981476,2.0133233070373535
1764808598.206577,0.9563315875411033,0.8832605061113834,-2.5259242525190113,-1.4890320301055908,-0.8402567505836487,-1.9002025127410889,,,,,,
1764808598.208322,,,,,,,0.10004180669784546,0.482216477394104,-0.0116196870803833,-1.616606593132019,0.4181485176086426,2.001150608062744
1764808598.216629,1.0684849715590476,1.0507055692404508,-2.531514619871974,-1.5302941799163818,-0.5552791953086853,-1.8853950500488281,,,,,,
1764808598.218352,,,,,,,0.09426504373550415,0.4551120400428772,-0.02807760238647461,-1.4915575981140137,0.5183142423629761,1.9738377332687378
1764808598.226681,1.3855954032376407,1.3641717991977929,-2.4146704476892946,-1.5173267126083374,-0.37194743752479553,-1.8690176010131836,,,,,,
1764808598.228383,,,,,,,0.12217426300048828,0.4534655213356018,-0.03113507851958275,-1.2852427959442139,0.5414459109306335,1.9792479276657104
1764808598.236734,1.743385051307082,1.6790157472491263,-2.5327725109785795,-1.421155571937561,-0.2445395141839981,-1.8555222749710083,,,,,,
1764808598.238413,,,,,,,0.15953004360198975,0.47381770610809326,-0.02842075377702713,-1.0429495573043823,0.47333958745002747,2.0022125244140625
1764808598.246786,2.0550062379196286,1.7825865963608025,-2.803456999307871,-1.2972031831741333,-0.16030985116958618,-1.8505094051361084,,,,,,
1764808598.248443,,,,,,,0.15542882680892944,0.5293724536895752,-0.0403326153755188,-0.8478269577026367,0.40543484687805176,1.986726999282837
1764808598.256838,2.4490114009693262,1.5112509506464005,-2.7872710036605595,-1.204892635345459,-0.10795127600431442,-1.8441276550292969,,,,,,
1764808598.258473,,,,,,,0.10435694456100464,0.5458147525787354,-0.08162456750869751,-0.7100235819816589,0.40354347229003906,1.9577925205230713
1764808598.266891,2.9766940898418426,0.9853829099804162,-2.589022221466899,-1.165464997291565,-0.07077913731336594,-1.8218196630477905,,,,,,
1764808598.268503,,,,,,,0.04426395893096924,0.5527144074440002,-0.13523566722869873,-0.6131579279899597,0.46345871686935425,1.9535517692565918
1764808598.276943,3.605203882075846,0.4965870011240244,-2.4610388156324623,-1.1541321277618408,-0.046741750091314316,-1.7670879364013672,,,,,,
1764808598.278533,,,,,,,0.011852800846099854,0.5246537327766418,-0.1574748158454895,-0.4315103590488434,0.5004750490188599,2.0117592811584473
1764808598.286995,4.150578879505396,0.252087339887023,-2.441527474954724,-1.1553914546966553,-0.05423891544342041,-1.6991366147994995,,,,,,
1764808598.288563,,,,,,,0.008423984050750732,0.46164464950561523,-0.16034817695617676,-0.3810248076915741,0.5573186278343201,1.993148922920227
1764808598.297048,4.407327489201724,0.2532698276698589,-2.3785160152465106,-1.1622536182403564,-0.11050219088792801,-1.640129804611206,,,,,,
1764808598.298593,,,,,,,0.014413952827453613,0.4714732766151428,-0.1648043394088745,-0.41585788130760193,0.5549726486206055,1.867557168006897
1764808598.3071,4.393838185292482,0.35248248157203194,-2.2441402780264617,-1.1379891633987427,-0.20854610204696655,-1.5846084356307983,,,,,,
1764808598.308623,,,,,,,0.027673780918121338,0.5010890364646912,-0.17604601383209229,-0.4979855716228485,0.46919065713882446,1.7501331567764282
1764808598.317152,4.284455142770708,0.3647363984674215,-2.2421873903930187,-1.0810645818710327,-0.2944069504737854,-1.5315191745758057,,,,,,
1764808598.318653,,,,,,,0.023812174797058105,0.5510550141334534,-0.18977504968643188,-0.5410587191581726,0.38386642932891846,1.6880069971084595
1764808598.327204,4.210898323650658,0.24637656102478503,-2.533141344290972,-1.0001171827316284,-0.30942341685295105,-1.4664421081542969,,,,,,
1764808598.328683,,,,,,,-0.011172235012054443,0.5767647624015808,-0.17588555812835693,-0.5136016011238098,0.37142014503479004,1.6477731466293335
1764808598.337257,4.227813802616298,0.20098551368117332,-2.8755998599767683,-0.924976110458374,-0.27497541904449463,-1.38477623462677,,,,,,
1764808598.338714,,,,,,,-0.05401867628097534,0.5956932902336121,-0.1671442985534668,-0.49034982919692993,0.4379000961780548,1.5781546831130981
1764808598.347309,4.311828595125675,0.3484828905418515,-3.0024837801367044,-0.8670341968536377,-0.25132307410240173,-1.2889107465744019,,,,,,
1764808598.348744,,,,,,,-0.06851345300674438,0.6059625744819641,-0.1693410873413086,-0.5132188200950623,0.4623223543167114,1.4620321989059448
1764808598.357361,4.329344378072023,0.4345122377440333,-2.9017881942003965,-0.8102145791053772,-0.24650384485721588,-1.182712435722351,,,,,,
1764808598.358774,,,,,,,-0.053238868713378906,0.6210872530937195,-0.18965882062911987,-0.5682724714279175,0.4004925489425659,1.3194984197616577
1764808598.367414,4.301251963792741,0.3515118829742074,-2.833679119092226,-0.7447855472564697,-0.23981650173664093,-1.0712897777557373,,,,,,
1764808598.368804,,,,,,,-0.03636103868484497,0.6315451860427856,-0.20436924695968628,-0.5808034539222717,0.28919506072998047,1.2060315608978271
1764808598.377466,4.2846407284706824,0.13403700678497552,-2.9206285037487745,-0.6716005802154541,-0.19445541501045227,-0.9615600109100342,,,,,,
1764808598.378834,,,,,,,-0.04938298463821411,0.6208987832069397,-0.20576274394989014,-0.517351508140564,0.21293170750141144,1.114908218383789
1764808598.387518,4.262477411979437,-0.05219692796617746,-3.1010020220339296,-0.6035400629043579,-0.10149513185024261,-0.8713772296905518,,,,,,
1764808598.388864,,,,,,,-0.08610916137695312,0.642234742641449,-0.20143234729766846,-0.40863966941833496,0.21887215971946716,0.9969587922096252
