timestamp,phone_accel_x,phone_accel_y,phone_accel_z,phone_gyro_x,phone_gyro_y,phone_gyro_z,watch_accel_x,watch_accel_y,watch_accel_z,watch_gyro_x,watch_gyro_y,watch_gyro_z
1764808599.282172,-1.5448901853978634,0.2534445997148752,1.1088789412677287,0.7169463634490967,0.8616462349891663,0.7330532073974609,,,,,,
1764808599.291572,,,,,,,0.10648572444915771,-0.21627026796340942,0.08839383721351624,1.0117238759994507,0.02174629643559456,-0.8424082398414612
1764808599.292225,-1.4835422749876974,0.3355389455556869,0.916031141334772,0.6697293519973755,0.8939520120620728,0.6833347678184509,,,,,,
1764808599.301602,,,,,,,0.10278451442718506,-0.20672422647476196,0.08706998825073242,1.005007028579712,0.01195278950035572,-0.7768793106079102
1764808599.302277,-1.462573136717081,0.32873218815028665,0.7839595894038677,0.6090987324714661,0.9320847392082214,0.6374538540840149,,,,,,
1764808599.311631,,,,,,,0.08682024478912354,-0.21004348993301392,0.09869793057441711,0.9393934011459351,-0.0033705069217830896,-0.7136141657829285
1764808599.312329,-1.4501514620393514,0.19060206683278083,0.6474561925053596,0.5570344924926758,0.9606133699417114,0.5892247557640076,,,,,,
1764808599.321661,,,,,,,0.054595768451690674,-0.2159857153892517,0.11757931113243103,0.8492727875709534,0.008208118379116058,-0.6418179869651794
1764808599.322381,-1.4382652094125747,-0.07972410957813263,0.5015805716276168,0.5028733015060425,0.9608721733093262,0.5360099673271179,,,,,,
1764808599.331692,,,,,,,0.02086406946182251,-0.21299582719802856,0.12884151935577393,0.7697468400001526,0.056206006556749344,-0.551914632320404
1764808599.332434,-1.391915546169877,-0.28344693926870823,0.4353320296943187,0.44477272033691406,0.9330477118492126,0.47038963437080383,,,,,,
1764808599.341722,,,,,,,-4.8041343688964844e-05,-0.20287376642227173,0.13233831524848938,0.7067452073097229,0.12072747200727463,-0.47999894618988037
1764808599.342486,-1.3266110070884227,-0.3797042504966259,0.35376901425123214,0.3855856657028198,0.8848922252655029,0.3954622149467468,,,,,,
1764808599.351753,,,,,,,-0.002030313014984131,-0.18208825588226318,0.11675482988357544,0.6403685212135315,0.2016018182039261,-0.4173409640789032
1764808599.352538,-1.1831582294434309,-0.2861550291836262,0.3498760984659195,0.32010573148727417,0.7947623133659363,0.3326033651828766,,,,,,
1764808599.361783,,,,,,,0.0311548113822937,-0.16706788539886475,0.10036769509315491,0.5645443201065063,0.21821008622646332,-0.35686108469963074
1764808599.362591,-0.9708259768396615,0.030969138759374615,0.44894671354889865,0.2724706530570984,0.691941499710083,0.28069472312927246,,,,,,
1764808599.371813,,,,,,,0.08363306522369385,-0.1752084493637085,0.09128677845001221,0.4580155909061432,0.13334447145462036,-0.326164573431015
1764808599.372643,-0.7923650141775608,0.3441992218732834,0.3888917655587196,0.24329893290996552,0.5863159894943237,0.25549882650375366,,,,,,
1764808599.381843,,,,,,,0.10984963178634644,-0.18166965246200562,0.08771765232086182,0.34786272048950195,0.035762250423431396,-0.30373117327690125
1764808599.382695,-0.6952876187384128,0.487771826505661,0.25936640924559906,0.21439005434513092,0.4643027186393738,0.24835491180419922,,,,,,
1764808599.391872,,,,,,,0.0976598858833313,-0.17430949211120605,0.08989948034286499,0.23786120116710663,-0.0034408143255859613,-0.2596851587295532
1764808599.392747,-0.6845499516248703,0.4438853385061025,0.1975473559260368,0.1800326108932495,0.3453667461872101,0.23392988741397858,,,,,,
1764808599.401902,,,,,,,0.06889086961746216,-0.16590547561645508,0.09817177057266235,0.11946052312850952,-0.01946052722632885,-0.21224279701709747
1764808599.4028,-0.7407499777525663,0.2719172449946403,0.14215101086404175,0.13668055832386017,0.2416280061006546,0.20031820237636566,,,,,,
1764808599.411932,,,,,,,0.03884720802307129,-0.159748375415802,0.10340869426727295,-0.009704765863716602,-0.02151036262512207,-0.17109329998493195
1764808599.412852,-0.7722831801354885,0.08693769421875476,0.062437459212541575,0.09476134181022644,0.16195714473724365,0.1468411386013031,,,,,,
1764808599.421962,,,,,,,0.018227040767669678,-0.15145212411880493,0.11150598526000977,-0.12375757098197937,-0.008700024336576462,-0.12766778469085693
1764808599.422904,-0.7630079867899418,-0.042263855233788485,-0.005772738182544708,0.059883520007133484,0.10306452959775925,0.07673767954111099,,,,,,
1764808599.431993,,,,,,,0.010037422180175781,-0.14099633693695068,0.11321967840194702,-0.20003345608711243,0.0026074908673763275,-0.07990173250436783
1764808599.432957,-0.7060843225628137,-0.0951052185833454,-0.07451952667236328,0.02606734074652195,0.050815291702747345,0.018164094537496567,,,,,,
1764808599.442023,,,,,,,0.010590195655822754,-0.12241244316101074,0.1021796464920044,-0.165754035115242,0.020327365025877953,-0.018009869381785393
1764808599.443009,-0.6324643750786781,-0.0754074154227972,-0.12745616708993912,0.0027490640059113503,-0.005915896035730839,-0.026564503088593483,,,,,,
1764808599.452054,,,,,,,0.018352270126342773,-0.09076166152954102,0.0757184624671936,-0.08238676190376282,0.026418546214699745,0.04491430148482323
1764808599.453061,-0.5796697734802961,0.02039630681872368,-0.17756839773654937,-0.02537444978952408,-0.07111673802137375,-0.04881361499428749,,,,,,
1764808599.462084,,,,,,,0.0318601131439209,-0.042595088481903076,0.059483885765075684,-0.03084847331047058,0.004972644150257111,0.08450964838266373
1764808599.463113,-0.5519809715658426,0.17269816135168076,-0.15613633639561011,-0.05295063555240631,-0.1222015917301178,-0.05467677861452103,,,,,,
1764808599.472114,,,,,,,0.05158376693725586,-0.02475607395172119,0.05841851234436035,-0.014094536192715168,-0.050857063382864,0.0961153656244278
1764808599.473166,-0.5273667547911405,0.29276772532165046,-0.17759174207951872,-0.06846727430820465,-0.1363416463136673,-0.05149083584547043,,,,,,
1764808599.482143,,,,,,,0.05596381425857544,-0.031474530696868896,0.06270653009414673,-0.028133656829595566,-0.09473823755979538,0.11227969080209732
1764808599.483218,-0.5337134934693575,0.3171282595962286,-0.26100654113544147,-0.07673446834087372,-0.12436405569314957,-0.04229462891817093,,,,,,
1764808599.492173,,,,,,,0.038105785846710205,-0.03395545482635498,0.07063251733779907,-0.05231597647070885,-0.09871194511651993,0.13111849129199982
1764808599.49327,-0.5819523314595222,0.24691724377274513,-0.2887689928079955,-0.08649840950965881,-0.10131147503852844,-0.04282406345009804,,,,,,
1764808599.502203,,,,,,,0.014130771160125732,-0.02734816074371338,0.08515679836273193,-0.08139343559741974,-0.07578745484352112,0.14017003774642944
1764808599.503323,-0.6310930867254734,0.17870237020254134,-0.312845467710495,-0.09060501307249069,-0.07988932728767395,-0.06085565686225891,,,,,,
1764808599.512233,,,,,,,-0.00276261568069458,-0.020555078983306885,0.09578472375869751,-0.10425484925508499,-0.03900919482111931,0.1399667114019394
1764808599.513375,-0.6687801355630159,0.1314350075930357,-0.3028665465423837,-0.0876326635479927,-0.07161249220371246,-0.08977331966161728,,,,,,
1764808599.522264,,,,,,,-0.004490256309509277,-0.02141594886779785,0.09384271502494812,-0.1349954605102539,-0.006762041710317135,0.13419590890407562
1764808599.523427,-0.634310879728198,0.16237258217036724,-0.2461550637612119,-0.07808283716440201,-0.07079683244228363,-0.11761094629764557,,,,,,
1764808599.532294,,,,,,,0.0021338462829589844,-0.02178955078125,0.08228603005409241,-0.19531922042369843,0.008443009108304977,0.12415406107902527
1764808599.533479,-0.563084549382329,0.20075988823175428,-0.2008335379898548,-0.0669630691409111,-0.08362846821546555,-0.1404307633638382,,,,,,
1764808599.542324,,,,,,,0.008502542972564697,-0.022140145301818848,0.07000470161437988,-0.2729724943637848,0.019549721851944923,0.11132162064313889
1764808599.543532,-0.4595166228801012,0.2379424946784973,-0.1606651937305927,-0.05989689752459526,-0.1136116087436676,-0.14839401841163635,,,,,,
1764808599.552354,,,,,,,0.014770328998565674,-0.023689627647399902,0.05469536781311035,-0.3330079913139343,0.027799395844340324,0.10355577617883682
1764808599.553584,-0.3006850743174553,0.24002339260578154,-0.10167643193351104,-0.05516153573989868,-0.14913497865200043,-0.14688001573085785,,,,,,
1764808599.562385,,,,,,,0.019841790199279785,-0.02257561683654785,0.03913503885269165,-0.26738184690475464,0.042677946388721466,0.10506951063871384
1764808599.563636,-0.19008710304796694,0.23485914171040057,-0.09481061955094337,-0.04479513689875603,-0.1768413931131363,-0.14203274250030518,,,,,,
1764808599.572414,,,,,,,0.01990431547164917,-0.0002459287643432617,0.03480693697929382,-0.19935479760169983,0.04035407304763794,0.12225782871246338
1764808599.573689,-0.1367629246175289,0.211325705909729,-0.20318563580764457,-0.036603253334760666,-0.18733957409858704,-0.13921591639518738,,,,,,
1764808599.582444,,,,,,,0.012614071369171143,0.025839924812316895,0.04828822612762451,-0.13182449340820312,0.04059828445315361,0.11746067553758621
1764808599.583741,-0.13115034543275833,0.1761544392853975,-0.2425344986438751,-0.032876793295145035,-0.17599964141845703,-0.14598897099494934,,,,,,
1764808599.592474,,,,,,,0.003057241439819336,0.019260525703430176,0.051950693130493164,-0.10709533095359802,0.05630054697394371,0.10965907573699951
1764808599.593793,-0.18877835853695868,0.13579203375875948,-0.22906945239305496,-0.027274567633867264,-0.14945350587368011,-0.16102944314479828,,,,,,
1764808599.602504,,,,,,,-0.004011988639831543,0.005801081657409668,0.05276519060134888,-0.10441885143518448,0.07978615909814835,0.11660166829824448
1764808599.603845,-0.24117840785980224,0.09473404718339443,-0.24491352100120856,-0.023693203926086426,-0.12269989401102066,-0.17814043164253235,,,,,,
1764808599.612535,,,,,,,-0.010328829288482666,4.178285598754883e-05,0.04727739095687866,-0.09469252079725266,0.1050419807434082,0.13211512565612793
1764808599.613898,-0.30373160240650177,0.05280570751428604,-0.2356535252247937,-0.011178163811564445,-0.09827940165996552,-0.1935993731021881,,,,,,
1764808599.622565,,,,,,,-0.011190056800842285,0.007092416286468506,0.03865170478820801,-0.07968134433031082,0.12486442178487778,0.13727952539920807
1764808599.62395,-0.29441490800678727,0.06585866583287715,-0.2053355073179118,-0.0003361683338880539,-0.07786627113819122,-0.2014346569776535,,,,,,
1764808599.632595,,,,,,,-0.009276151657104492,0.01554340124130249,0.03297281265258789,-0.06731189787387848,0.13596609234809875,0.1331436187028885
1764808599.634002,-0.25142741467356683,0.0939946269929409,-0.18184474161518738,0.010745247825980186,-0.06173783913254738,-0.19935113191604614,,,,,,
1764808599.642625,,,,,,,-0.008566856384277344,0.017297029495239258,0.025014519691467285,-0.0703822523355484,0.14208389818668365,0.12254132330417633
1764808599.644055,-0.19984978764951228,0.05773264252245426,-0.159541706125997,0.01701859012246132,-0.04893548786640167,-0.19287937879562378,,,,,,
1764808599.652654,,,,,,,-0.007070362567901611,0.01242917776107788,0.02042815089225769,-0.08959710597991943,0.1415906846523285,0.11486948281526566
1764808599.654107,-0.14788170000314713,0.014585574713349342,-0.11286531341327354,0.021758217364549637,-0.04545820131897926,-0.1871703565120697,,,,,,
1764808599.662684,,,,,,,-0.011058926582336426,0.0018243193626403809,0.015503227710723877,-0.12099657207727432,0.14047002792358398,0.10146526247262955
1764808599.664159,-0.1304196930706501,-0.04243628919124603,-0.07134091490255669,0.026092778891324997,-0.04803214594721794,-0.18318627774715424,,,,,,
1764808599.672714,,,,,,,-0.018085181713104248,-0.0011175274848937988,0.010485053062438965,-0.13975515961647034,0.15046647191047668,0.07952594012022018
1764808599.674211,-0.07729016042947769,-0.10521627823114395,-0.08250643377304076,0.028150442987680435,-0.05353571102023125,-0.18059052526950836,,,,,,
1764808599.682745,,,,,,,-0.022800028324127197,0.010584771633148193,0.002987980842590332,-0.1463901698589325,0.16355696320533752,0.06952976435422897
1764808599.684264,-0.0022428104907274244,-0.11193886448442936,-0.10314122552275658,0.02751474641263485,-0.0629100352525711,-0.17742322385311127,,,,,,
1764808599.692775,,,,,,,-0.018156886100769043,0.020119667053222656,-0.0030954182147979736,-0.1270912140607834,0.15884822607040405,0.06350403279066086
1764808599.694316,0.08254618126153945,-0.11010521931648254,-0.0988987839137204,0.035933591425418854,-0.07338310778141022,-0.1682673692703247,,,,,,
1764808599.702806,,,,,,,-0.011310100555419922,0.019891798496246338,-0.011086106300354004,-0.08801491558551788,0.143385648727417,0.061423834413290024
1764808599.704368,0.13552490725517272,-0.09646247841119766,-0.13840190572990105,0.04597210884094238,-0.08549809455871582,-0.14958661794662476,,,,,,
1764808599.712836,,,,,,,-0.007241249084472656,0.021386325359344482,-0.011862576007843018,-0.07487285137176514,0.12977823615074158,0.050857480615377426
1764808599.71442,0.1353606566041708,-0.05526771371364593,-0.11731354326009749,0.04732344672083855,-0.09090761095285416,-0.13237135112285614,,,,,,
1764808599.722866,,,,,,,-0.006171047687530518,0.01785433292388916,-0.008066624402999878,-0.07429307699203491,0.11317208409309387,0.038453273475170135
1764808599.724473,0.10118716884553432,-0.040893735924363135,-0.07704698105705901,0.0488521009683609,-0.08745748549699783,-0.12127236276865005,,,,,,
1764808599.732895,,,,,,,-0.006286680698394775,0.009242594242095947,-0.010195314884185791,-0.08566490560770035,0.10217296332120895,0.03310118615627289
1764808599.734525,0.047917350950837136,-0.0520014053940773,-0.06336800892776809,0.049412645399570465,-0.08268638700246811,-0.11453448981046677,,,,,,
1764808599.742925,,,,,,,-0.00864320993423462,0.003283262252807617,-0.011450439691543579,-0.09828110039234161,0.09996333718299866,0.035483915358781815
1764808599.744577,0.01205459493100643,-0.08653028246164321,-0.046965164792537685,0.04721580445766449,-0.07682956010103226,-0.11600801348686218,,,,,,
1764808599.752955,,,,,,,-0.012821435928344727,-0.0006774663925170898,-0.011827915906906128,-0.10488225519657135,0.0911828950047493,0.03510561212897301
1764808599.75463,0.004371639212965965,-0.12491525043547153,-0.020247838258743284,0.04510311782360077,-0.06969787925481796,-0.11662426590919495,,,,,,
1764808599.762985,,,,,,,-0.013718068599700928,-0.006756603717803955,-0.011064380407333374,-0.11479134857654572,0.08655538409948349,0.03585981950163841
1764808599.764682,0.038951369684934616,-0.17315584199130535,-0.012328735697269439,0.03915995731949806,-0.06621383130550385,-0.11732606589794159,,,,,,
1764808599.773015,,,,,,,-0.015860915184020996,-0.010476768016815186,-0.011496901512145996,-0.12231259047985077,0.08992588520050049,0.036375273019075394
1764808599.774734,0.0794248343706131,-0.21347850002944468,0.009319617009162902,0.02897816151380539,-0.06902612745761871,-0.11884273588657379,,,,,,
1764808599.783046,,,,,,,-0.017097413539886475,-0.011313796043395996,-0.019031256437301636,-0.12993961572647095,0.09852975606918335,0.034504134207963943
1764808599.784786,0.10271510906517504,-0.22794541679918764,0.07224338930076919,0.01941170170903206,-0.08272792398929596,-0.11622508615255356,,,,,,
1764808599.793077,,,,,,,-0.011527776718139648,-0.0033525824546813965,-0.026076972484588623,-0.13781891763210297,0.0976589024066925,0.03507198765873909
1764808599.794839,0.1363145963281393,-0.16168869155943394,0.11444236260480246,0.01707024872303009,-0.09936869144439697,-0.10570240765810013,,,,,,
1764808599.803107,,,,,,,-0.0004195570945739746,-0.0014318227767944336,-0.02419295907020569,-0.14005117118358612,0.06958412379026413,0.03484109044075012
1764808599.804891,0.15328151322007177,-0.10431026930212974,0.095680388122797,0.024120070040225983,-0.11025116592645645,-0.09322573989629745,,,,,,
1764808599.813137,,,,,,,0.0009514093399047852,-0.008656859397888184,-0.018765151500701904,-0.14423784613609314,0.04648173972964287,0.02787552960216999
1764808599.814943,0.13706044625937938,-0.08861936369538306,0.06898293076667468,0.030799012631177902,-0.1108919233083725,-0.08454649150371552,,,,,,
1764808599.823167,,,,,,,-0.011120080947875977,-0.014990687370300293,-0.008923768997192383,-0.1593337059020996,0.05251726135611534,0.023786511272192
1764808599.824996,0.07710837412178516,-0.1431377203464508,0.041646015596389765,0.02924187481403351,-0.10301784425973892,-0.08661218732595444,,,,,,
1764808599.833196,,,,,,,-0.023449420928955078,-0.016520559787750244,0.00010633468627929688,-0.17982502281665802,0.07333678752183914,0.024261420592665672
1764808599.835048,0.012370236751437187,-0.22288170366883275,0.04811082769632339,0.02618882805109024,-0.08855048567056656,-0.1013844758272171,,,,,,
1764808599.843226,,,,,,,-0.027473509311676025,-0.01869422197341919,0.00429224967956543,-0.20995789766311646,0.08569039404392242,0.03043649159371853
1764808599.8451,-0.05070084418952465,-0.25513445249795913,0.044209728604555125,0.027425061911344528,-0.07655566930770874,-0.12037613987922668,,,,,,
1764808599.853256,,,,,,,-0.024809181690216064,-0.024761199951171875,0.0026617348194122314,-0.24191467463970184,0.090487539768219,0.03638233244419098
1764808599.855152,-0.04589841234385967,-0.2642214297950268,0.05846621749401092,0.023794107139110565,-0.07066476345062256,-0.13259285688400269,,,,,,
1764808599.863286,,,,,,,-0.02123284339904785,-0.03126382827758789,-0.007893949747085571,-0.26361170411109924,0.08903585374355316,0.03263606131076813
1764808599.865205,0.010306874480843543,-0.24699556970596312,0.0827706376671791,0.01748161017894745,-0.07872600108385086,-0.1382368803024292,,,,,,
1764808599.873317,,,,,,,-0.019515275955200195,-0.02896791696548462,-0.01706346869468689,-0.2732602655887604,0.10100702941417694,0.03560701757669449
1764808599.875257,0.0811591108173132,-0.25774200464785096,0.08554127142429352,0.004443838726729155,-0.09600884467363358,-0.14220179617404938,,,,,,
1764808599.883346,,,,,,,-0.016264915466308594,-0.01558750867843628,-0.02293950319290161,-0.2873936593532562,0.10875043272972107,0.05331144854426384
1764808599.885309,0.19218729019761085,-0.279586756709218,0.11418401306271553,-0.010892877355217934,-0.11549559235572815,-0.13982249796390533,,,,,,
1764808599.893377,,,,,,,-0.008560359477996826,-0.0040937066078186035,-0.020666390657424927,-0.30709007382392883,0.09688977897167206,0.06217677891254425
1764808599.895361,0.2737146498054266,-0.22683891686201094,0.11153554438054561,-0.017782701179385185,-0.1355939507484436,-0.1301632970571518,,,,,,
1764808599.903407,,,,,,,-0.003670811653137207,-0.001369774341583252,-0.017128080129623413,-0.34887588024139404,0.066342793405056,0.043003082275390625
1764808599.905414,0.28074060291945935,-0.15411913308799266,0.05021276841163635,-0.014454549178481102,-0.14690598845481873,-0.11660381406545639,,,,,,
1764808599.913438,,,,,,,-0.003119528293609619,-0.007759273052215576,-0.011611729860305786,-0.4213561415672302,0.046165887266397476,0.0255727618932724
1764808599.915466,0.24729016873836515,-0.10890753396451473,-0.017571895906113785,-0.01438156422227621,-0.15659940242767334,-0.10931341350078583,,,,,,
1764808599.923468,,,,,,,-0.008957386016845703,-0.018305659294128418,0.0006718635559082031,-0.5269305109977722,0.03788718581199646,0.03296090289950371
1764808599.925518,0.21134441061019896,-0.1166506954371929,-0.03666764266192913,-0.007694900035858154,-0.16592232882976532,-0.10657674819231033,,,,,,
1764808599.933497,,,,,,,-0.015539944171905518,-0.02238565683364868,0.013039469718933105,-0.6790699362754822,0.04413576051592827,0.027361072599887848
1764808599.935571,0.19757307488918302,-0.16048866811990736,-0.07734335192143917,0.00406428799033165,-0.1712244153022766,-0.10699326545000076,,,,,,
1764808599.943527,,,,,,,-0.022191762924194336,0.0038956403732299805,0.01759093999862671,-0.8481958508491516,0.03817480802536011,0.015019452199339867
1764808599.945623,0.1607797600209713,-0.18571721740067004,-0.15167524706721305,0.015926752239465714,-0.1654847264289856,-0.11122894287109375,,,,,,
1764808599.953557,,,,,,,-0.026975631713867188,0.013149738311767578,0.017930209636688232,-1.1120678186416626,-0.0162665992975235,-0.01856953464448452
1764808599.955675,0.1244809506714344,-0.19031915823817253,-0.24094109197258948,0.028290854766964912,-0.15322273969650269,-0.11647672951221466,,,,,,
1764808599.963588,,,,,,,-0.03418993949890137,-0.019840598106384277,0.02580997347831726,-1.4930213689804077,-0.0832512229681015,-0.1371675580739975
1764808599.965727,0.20445698918402194,-0.2554787358909845,-0.21791852830350397,0.02990579605102539,-0.14681437611579895,-0.12234102189540863,,,,,,
1764808599.973618,,,,,,,-0.04892235994338989,-0.04545116424560547,0.03321409225463867,-2.0320968627929688,-0.07665537297725677,-0.2154187560081482
1764808599.97578,0.3356184405326843,-0.3423731754899025,-0.13376667454415,0.030646154657006264,-0.15500253438949585,-0.12557701766490936,,,,,,
1764808599.983648,,,,,,,-0.0509832501411438,-0.06807821989059448,0.0304432213306427,-2.4011049270629883,-0.04727537930011749,-0.17527692019939423
1764808599.985832,0.5305962382316589,-0.41359190705120563,-0.07183131050169468,0.046852391213178635,-0.19819383323192596,-0.11986216902732849,,,,,,
1764808599.993678,,,,,,,-0.03992652893066406,-0.06755274534225464,0.009792417287826538,-2.6913862228393555,-0.05281075835227966,-0.060382429510354996
1764808599.995884,0.6493751778692006,-0.44119478424787517,-0.17907003447115422,0.07330077886581421,-0.28055474162101746,-0.10254336893558502,,,,,,
1764808600.003707,,,,,,,-0.03692358732223511,-0.01713663339614868,-0.0013756155967712402,-2.8087849617004395,-0.0553109347820282,-0.010757616721093655
1764808600.005936,0.7469616918742656,-0.3444400448918342,-0.26449787211623044,0.09522450715303421,-0.38127902150154114,-0.08088155835866928,,,,,,
1764808600.013737,,,,,,,-0.03833925724029541,0.006140291690826416,-0.009816691279411316,-2.8949930667877197,-0.07808629423379898,-0.037136759608983994
1764808600.015989,0.8341314412832259,-0.3065215253859758,-0.2307341524685733,0.10026346892118454,-0.4776902198791504,-0.054748762398958206,,,,,,
1764808600.023768,,,,,,,-0.03162258863449097,0.036192357540130615,0.0007510781288146973,-3.0424273014068604,-0.0939858928322792,-0.09521470963954926
1764808600.026041,0.8493933078229426,-0.36002924368977546,-0.19460896438658237,0.08475050330162048,-0.5450458526611328,-0.04718490317463875,,,,,,
1764808600.033798,,,,,,,-0.01761525869369507,0.05418616533279419,-0.016183361411094666,-2.966292142868042,-0.16472238302230835,-0.06306716054677963
1764808600.036093,0.7276531802922487,-0.43528351437747476,-0.23183190284371374,0.06787283718585968,-0.5711586475372314,-0.05060430243611336,,,,,,
1764808600.043828,,,,,,,-0.00425034761428833,0.03865593671798706,-0.043557003140449524,-2.7810869216918945,-0.26260098814964294,-0.017358792945742607
1764808600.046146,0.6186351716905832,-0.4224772242963314,-0.38934009384810925,0.05540445074439049,-0.5866358876228333,-0.04366330802440643,,,,,,
1764808600.053859,,,,,,,-0.012513697147369385,0.06818640232086182,-0.05591362714767456,-2.60686993598938,-0.28086790442466736,0.0031754428055137396
1764808600.056198,0.609543518218398,-0.2381517535150051,-0.3703150753825903,0.034264009445905685,-0.6045347452163696,-0.018577927723526955,,,,,,
1764808600.063889,,,,,,,-0.017986774444580078,0.05883663892745972,-0.07251554727554321,-2.3837413787841797,-0.2922704815864563,-0.04938097670674324
1764808600.066251,0.5658370629608631,-0.1445312205314636,-0.18665479051172731,0.0032416449394077063,-0.621543288230896,0.0025939373299479485,,,,,,
1764808600.073919,,,,,,,-0.029283881187438965,0.029019296169281006,-0.06712166965007782,-2.288788318634033,-0.2881564199924469,-0.12248514592647552
1764808600.076303,0.4851777183592319,-0.24112930802106855,0.042139352071285247,-0.02592940255999565,-0.6427188515663147,0.00999888963997364,,,,,,
1764808600.083949,,,,,,,-0.03840327262878418,0.03811502456665039,-0.035179734230041504,-2.2829790115356445,-0.26763251423835754,-0.16942229866981506
1764808600.086356,0.36148119606375695,-0.37598143058121203,0.1725398289848119,-0.03050338104367256,-0.6752368211746216,-0.00048810604494065046,,,,,,
1764808600.093979,,,,,,,-0.0384221076965332,0.0454484224319458,-0.005005732178688049,-2.336386203765869,-0.20690232515335083,-0.20446157455444336
1764808600.096408,0.23942542671263217,-0.3637129006385803,0.1454343068510294,-0.0022120987996459007,-0.6847140789031982,-0.018796399235725403,,,,,,
1764808600.104009,,,,,,,-0.03500032424926758,0.07755249738693237,0.018936336040496826,-2.530168056488037,-0.16425739228725433,-0.27886736392974854
1764808600.10646,0.17362053689360618,-0.1610527317434549,-0.045165421894192696,0.06691823154687881,-0.6333292126655579,-0.0321340411901474,,,,,,
1764808600.114039,,,,,,,-0.036357581615448,0.09649461507797241,0.03087656944990158,-2.6586835384368896,-0.14660781621932983,-0.3204413652420044
1764808600.116512,0.23317513414621352,0.141128718611598,-0.3293622662147507,0.17200610041618347,-0.5380002856254578,-0.022572726011276245,,,,,,
1764808600.124069,,,,,,,-0.04341918230056763,0.08146852254867554,0.036025404930114746,-2.72292423248291,-0.09630151838064194,-0.3402976393699646
1764808600.126565,0.4884726682513952,0.3415969304203987,-0.4792570596059784,0.29199323058128357,-0.455748587846756,0.014434292912483215,,,,,,
1764808600.134099,,,,,,,-0.06674385070800781,0.1021876335144043,0.042373593896627426,-2.6538093090057373,-0.012435373850166798,-0.3763135075569153
1764808600.136617,0.8571943369626999,0.2514244920641184,-0.4135965101610869,0.3982221186161041,-0.42435944080352783,0.07745356857776642,,,,,,
1764808600.14413,,,,,,,-0.08768057823181152,0.16179853677749634,0.0364990234375,-2.5611202716827393,0.07647398859262466,-0.44239184260368347
1764808600.146669,1.1212006627023219,0.01760112314224243,-0.23616489054672418,0.48766571283340454,-0.40722760558128357,0.13779601454734802,,,,,,
1764808600.15416,,,,,,,-0.10429060459136963,0.23709094524383545,0.02092146873474121,-2.5093135833740234,0.12954333424568176,-0.6236163377761841
1764808600.156722,1.1425117462784051,-0.20578969909250736,-0.2300344980329275,0.5652984976768494,-0.372485876083374,0.17688234150409698,,,,,,
1764808600.16419,,,,,,,-0.11944770812988281,0.28808993101119995,-0.014719008468091488,-2.395448684692383,0.2015935629606247,-0.7358233332633972
1764808600.166774,1.120620816987753,-0.3639882104486227,-0.231894373620674,0.6297110319137573,-0.3236948847770691,0.20713558793067932,,,,,,
1764808600.17422,,,,,,,-0.12408745288848877,0.33400946855545044,-0.04265129566192627,-2.202836751937866,0.27995920181274414,-0.7922290563583374
1764808600.176826,1.354177059406042,-0.5106149419546127,-0.31031390340626236,0.6941569447517395,-0.23996512591838837,0.2634012997150421,,,,,,
1764808600.18425,,,,,,,-0.13018542528152466,0.41238176822662354,-0.06693685054779053,-1.9490324258804321,0.35181236267089844,-0.8694681525230408
1764808600.186878,1.8605548021823166,-0.6718325088709592,-0.4442096020244062,0.7383167147636414,-0.10817193239927292,0.37910711765289307,,,,,,
1764808600.19428,,,,,,,-0.1288413405418396,0.4776993989944458,-0.0815889835357666,-1.652036190032959,0.4337935149669647,-0.931894063949585
1764808600.196931,2.458584992739558,-0.7008996134012937,-0.44819911005198954,0.7495291233062744,0.048229653388261795,0.5527207851409912,,,,,,
1764808600.20431,,,,,,,-0.11135536432266235,0.4994099736213684,-0.09630881994962692,-1.4646044969558716,0.4546377956867218,-1.0693087577819824
1764808600.206983,2.8654952300697563,-0.5835492452621459,-0.4630447970062494,0.740003764629364,0.20381224155426025,0.7260579466819763,,,,,,
1764808600.21434,,,,,,,-0.08718347549438477,0.46885114908218384,-0.10485637187957764,-1.339210033416748,0.45091336965560913,-1.1933338642120361
1764808600.217035,2.913143116429448,-0.43882571702897544,-0.5729910263687372,0.7156320810317993,0.29705432057380676,0.8583909869194031,,,,,,
1764808600.22437,,,,,,,-0.06345278024673462,0.4530395269393921,-0.0872265100479126,-1.3047443628311157,0.4427182972431183,-1.3248213529586792
1764808600.227087,2.9317350041747092,-0.3538058391302824,-0.712038189465925,0.7079799175262451,0.299307644367218,0.9561884999275208,,,,,,
1764808600.2344,,,,,,,-0.05084943771362305,0.5029489398002625,-0.039956338703632355,-1.2899932861328125,0.4339493215084076,-1.45998215675354
1764808600.23714,3.1707442513018846,-0.2962397853463888,-1.020842272831127,0.7303834557533264,0.2487107813358307,1.0546947717666626,,,,,,
1764808600.24443,,,,,,,-0.04583472013473511,0.5609550476074219,0.02652299404144287,-1.2856398820877075,0.41322991251945496,-1.5697352886199951
1764808600.247192,3.624931788113713,-0.07625614120662212,-1.3862537210159003,0.7836369872093201,0.18103063106536865,1.1736559867858887,,,,,,
1764808600.254461,,,,,,,-0.04352360963821411,0.587989330291748,0.09172593057155609,-1.2366924285888672,0.3989441990852356,-1.697061538696289
1764808600.257244,4.179463028684258,0.3669926529616117,-1.7710417045176028,0.8756105899810791,0.10144393891096115,1.328437089920044,,,,,,
1764808600.264491,,,,,,,-0.051219940185546875,0.6122739315032959,0.141373872756958,-1.2508399486541748,0.44082584977149963,-1.8480430841445923
1764808600.267297,4.712245378783345,0.7833429188102483,-2.037450415223837,0.9917306303977966,0.0009158920729532838,1.5195900201797485,,,,,,
1764808600.274521,,,,,,,-0.05220299959182739,0.6352224349975586,0.15050578117370605,-1.2446763515472412,0.48153626918792725,-1.9910951852798462
1764808600.277349,5.091446940454841,0.9640192194342613,-2.0053695158302784,1.10068941116333,-0.13576604425907135,1.7372379302978516,,,,,,
1764808600.284551,,,,,,,-0.04393082857131958,0.6225106716156006,0.1359470933675766,-1.2596756219863892,0.5593786239624023,-2.0810115337371826
1764808600.287401,5.1933524867028,0.8766904800713061,-1.6455110986627637,1.1737060546875,-0.26362597942352295,1.951515793800354,,,,,,
1764808600.294581,,,,,,,-0.030069351196289062,0.6318301558494568,0.11345255374908447,-1.3557617664337158,0.602302610874176,-2.256779432296753
1764808600.297453,5.098028072410822,0.625351328203082,-1.3585644807100294,1.208822250366211,-0.3427245020866394,2.1225461959838867,,,,,,
1764808600.304611,,,,,,,-0.015867173671722412,0.6558139324188232,0.09042344987392426,-1.4614790678024292,0.6328291296958923,-2.45171856880188
1764808600.307506,4.952145437270403,0.4942512516528368,-1.1981202362537384,1.2363696098327637,-0.438152939081192,2.2700865268707275,,,,,,
1764808600.314641,,,,,,,-0.0017261505126953125,0.6519383788108826,0.0803377628326416,-1.4430806636810303,0.7235768437385559,-2.55621337890625
1764808600.317558,4.871372110900283,0.5288952795326709,-0.9725630297653376,1.2693533897399902,-0.524950385093689,2.4352455139160156,,,,,,
1764808600.324671,,,,,,,0.012224912643432617,0.6410048604011536,0.07357168197631836,-1.4196664094924927,0.7971435189247131,-2.707963228225708
1764808600.32761,4.783559387412667,0.694089933386445,-0.9242376825354993,1.3063081502914429,-0.5815942883491516,2.620316982269287,,,,,,
1764808600.334701,,,,,,,0.020821094512939453,0.6407015919685364,0.09304116666316986,-1.432705283164978,0.8898484110832214,-2.8814384937286377
1764808600.337663,4.458318548509478,0.9027484659135341,-0.9978101376160978,1.3434035778045654,-0.6097851991653442,2.781585454940796,,,,,,
1764808600.344731,,,,,,,0.04542422294616699,0.5976589322090149,0.10230422019958496,-1.2659226655960083,0.986560046672821,-2.9757561683654785
1764808600.347715,3.9833477513879534,1.1376771657288074,-1.1487957949839531,1.3679248094558716,-0.6127975583076477,2.8976919651031494,,,,,,
1764808600.354761,,,,,,,0.08021458983421326,0.5731324553489685,0.1332244873046875,-1.0728764533996582,1.0652012825012207,-3.096041440963745
1764808600.357767,3.598387480059266,1.2702063982993363,-1.3173017653428016,1.3951936960220337,-0.5643280148506165,2.9652938842773438,,,,,,
1764808600.364791,,,,,,,0.10239377617835999,0.6231486797332764,0.20032373070716858,-0.9418882727622986,1.1776231527328491,-3.254901885986328
1764808600.367819,3.3695167651087043,1.4452373865127564,-1.6450497647613287,1.4623130559921265,-0.48501119017601013,3.024812698364258,,,,,,
1764808600.374822,,,,,,,0.13535383343696594,0.6433961987495422,0.2694244384765625,-0.8275530338287354,1.2947252988815308,-3.366454601287842
1764808600.377872,3.3520220249503847,1.9265210200428962,-1.9644100211933253,1.576764464378357,-0.40998196601867676,3.1388707160949707,,,,,,
1764808600.384852,,,,,,,0.19353777170181274,0.5998218059539795,0.30754438042640686,-0.7269797921180725,1.389159083366394,-3.4369966983795166
1764808600.387924,3.409581648993492,2.6471739661842584,-2.101886062516272,1.709251046180725,-0.3366001844406128,3.3007731437683105,,,,,,
1764808600.394882,,,,,,,0.2393365204334259,0.5545362830162048,0.3191092014312744,-0.587315022945404,1.4851311445236206,-3.508190631866455
1764808600.397976,3.295163242653012,3.140119980457425,-2.06527979465276,1.8177553415298462,-0.25174015760421753,3.457435369491577,,,,,,
1764808600.404912,,,,,,,0.26281750202178955,0.5082495212554932,0.3021336495876312,-0.4200546443462372,1.5754543542861938,-3.5637335777282715
1764808600.408028,2.897922750943899,3.1161463996738195,-1.8268121070563792,1.885158658027649,-0.1707170456647873,3.5522329807281494,,,,,,
1764808600.414942,,,,,,,0.26820436120033264,0.46901237964630127,0.2685501277446747,-0.2428104728460312,1.6890736818313599,-3.634915590286255
1764808600.418081,2.4109891288280485,2.6588679111093283,-1.5357795349642633,1.9069294929504395,-0.09792940318584442,3.5770633220672607,,,,,,
1764808600.424972,,,,,,,0.2772557735443115,0.4457990527153015,0.25874271988868713,-0.16251376271247864,1.8126426935195923,-3.7034621238708496
1764808600.428133,2.0475749188750982,2.254570486626029,-1.2845982040062547,1.9175676107406616,-0.025715040042996407,3.5742743015289307,,,,,,
1764808600.435002,,,,,,,0.32009756565093994,0.4276517629623413,0.26646938920021057,-0.22737665474414825,1.893802285194397,-3.779181718826294
1764808600.438185,1.9201327803105115,2.312853456507623,-1.2752642662107945,1.9460855722427368,0.04593011736869812,3.588092803955078,,,,,,
1764808600.445032,,,,,,,0.3841584324836731,0.3874478340148926,0.28365981578826904,-0.2862143814563751,1.963376760482788,-3.8073952198028564
1764808600.448238,2.0308844808369875,2.933151008452475,-1.5329183003142475,1.9908781051635742,0.08943886309862137,3.630833387374878,,,,,,
1764808600.455062,,,,,,,0.43082088232040405,0.3627393841743469,0.3226473033428192,-0.23588305711746216,2.041231632232666,-3.7619545459747314
1764808600.45829,2.2185598465681076,3.6338901705950497,-1.7325427547752856,2.0545270442962646,0.10010375827550888,3.7027742862701416,,,,,,
1764808600.465092,,,,,,,0.4535478353500366,0.3368629813194275,0.3341415822505951,-0.160396546125412,2.0944831371307373,-3.7680227756500244
1764808600.468342,2.3561130447804928,4.034111139419674,-1.8037357673734424,2.117532968521118,0.08739398419857025,3.7849082946777344,,,,,,
1764808600.475122,,,,,,,0.45250752568244934,0.30594587326049805,0.3388567268848419,-0.12160307914018631,2.1652610301971436,-3.7937252521514893
1764808600.478394,2.261989238449931,4.078572212436795,-1.7950538637459277,2.1775918006896973,0.05126181244850159,3.8157901763916016,,,,,,
1764808600.485152,,,,,,,0.44401198625564575,0.2565085291862488,0.34288617968559265,-0.024695487692952156,2.2608160972595215,-3.744006395339966
1764808600.488447,1.8246990604251623,3.8790979801014065,-1.6018158954516053,2.2327358722686768,0.028437230736017227,3.794279098510742,,,,,,
1764808600.495183,,,,,,,0.4511983096599579,0.23016971349716187,0.3397934138774872,0.07998424023389816,2.346127510070801,-3.7049551010131836
1764808600.498499,1.4212597140759229,3.660359952108562,-1.377571963518858,2.281135320663452,0.06235278397798538,3.7552525997161865,,,,,,
1764808600.505213,,,,,,,0.4624369442462921,0.2284250259399414,0.32919737696647644,0.18791790306568146,2.421933889389038,-3.660413980484009
1764808600.508551,1.0159662642925977,3.657226037997007,-1.2955977369263767,2.3091814517974854,0.1380331665277481,3.7115440368652344,,,,,,
1764808600.515243,,,,,,,0.4897516667842865,0.1999625563621521,0.30202335119247437,0.1994638741016388,2.4529988765716553,-3.6470088958740234
1764808600.518603,0.6070195526987314,3.7960716141074893,-1.2789099292367696,2.3312020301818848,0.22026388347148895,3.6814768314361572,,,,,,
1764808600.525273,,,,,,,0.5209544897079468,0.18352502584457397,0.29840803146362305,0.09792207181453705,2.5006062984466553,-3.6558420658111572
1764808600.528656,0.3851742063403129,3.935891880469024,-1.4249994851261376,2.3527231216430664,0.265855073928833,3.6820762157440186,,,,,,
1764808600.535303,,,,,,,0.5557327270507812,0.17835348844528198,0.3188916742801666,0.022623585537075996,2.5292816162109375,-3.6078131198883057
1764808600.538708,0.502592963540554,4.205767390502989,-1.500440218296647,2.366933822631836,0.2866620123386383,3.7042322158813477,,,,,,
1764808600.545333,,,,,,,0.5957396626472473,0.1442580223083496,0.3282698690891266,-0.08343680202960968,2.536726951599121,-3.604128360748291
1764808600.54876,0.6334492944628,4.5839705887869,-1.5488868538185954,2.3804709911346436,0.2897728383541107,3.719163656234741,,,,,,
1764808600.555363,,,,,,,0.6075507402420044,0.10930889844894409,0.35818374156951904,-0.14214439690113068,2.593202829360962,-3.570047378540039
1764808600.558813,0.6428904920250177,4.88268757790178,-1.659665150091052,2.4130170345306396,0.24830392003059387,3.708509922027588,,,,,,
1764808600.565393,,,,,,,0.611065149307251,0.08059614896774292,0.3712904155254364,-0.17637906968593597,2.61725115776062,-3.5223114490509033
1764808600.568865,0.5301052398443221,5.036604174154997,-1.689902175183594,2.476865768432617,0.17275802791118622,3.6757965087890625,,,,,,
1764808600.575423,,,,,,,0.5975021719932556,0.043199241161346436,0.3496856987476349,-0.25902459025382996,2.665693998336792,-3.5019731521606445
1764808600.578917,0.2923223196417093,4.949657712107896,-1.6331550365671514,2.527946710586548,0.08247070014476776,3.6242642402648926,,,,,,
1764808600.585453,,,,,,,0.5814598798751831,0.011986792087554932,0.3388559818267822,-0.5882962346076965,2.7195029258728027,-3.584860324859619
1764808600.588969,0.05503858113288879,4.786841770084202,-1.4366162731617689,2.5642340183258057,-0.018883617594838142,3.562711238861084,,,,,,
1764808600.595483,,,,,,,0.5974752306938171,0.03449767827987671,0.36742374300956726,-0.7885183691978455,2.783381223678589,-3.5436084270477295
1764808600.599022,0.1312257487565279,4.8118341725215314,-1.41843968821913,2.613344430923462,-0.16635417938232422,3.519313097000122,,,,,,
1764808600.605513,,,,,,,0.632168173789978,0.058690428733825684,0.3715849816799164,-0.9782180190086365,2.8333404064178467,-3.4789066314697266
1764808600.609074,0.33484394902884956,4.9743186906337735,-1.4285855269193648,2.658871650695801,-0.31073611974716187,3.532750129699707,,,,,,
1764808600.615544,,,,,,,0.6449110507965088,0.08047991991043091,0.3597433567047119,-0.9363288283348083,2.887418270111084,-3.3633763790130615
1764808600.619126,0.6612760435432196,5.270621019822359,-1.4036936622470617,2.671546459197998,-0.389378160238266,3.6067614555358887,,,,,,
1764808600.625574,,,,,,,0.6450046896934509,0.07901561260223389,0.30114197731018066,-0.6916426420211792,2.9099652767181396,-3.2893214225769043
1764808600.629178,0.8708680575281381,5.334211156201362,-1.2564274637937545,2.6498396396636963,-0.40598562359809875,3.6391870975494385,,,,,,
1764808600.635604,,,,,,,0.6089082956314087,0.07615137100219727,0.24738919734954834,-0.49781227111816406,2.9712002277374268,-3.2353146076202393
1764808600.639231,0.20471300977170467,4.928343121400475,-0.9668296006798743,2.6172871589660645,-0.3908250331878662,3.5695812702178955,,,,,,
1764808600.645634,,,,,,,0.5801089406013489,0.05701416730880737,0.24433711171150208,-0.45616763830184937,3.036168098449707,-3.2343573570251465
1764808600.649283,-0.8317407467544078,4.373367059671879,-0.8400595161579549,2.593524932861328,-0.34201058745384216,3.472952365875244,,,,,,
1764808600.655664,,,,,,,0.5972569584846497,0.0742180347442627,0.27329012751579285,-0.4385182857513428,3.0681655406951904,-3.2404582500457764
1764808600.659335,-1.1685510274201631,4.170189588904381,-0.9335635831549763,2.57218337059021,-0.2539542317390442,3.419525384902954,,,,,,
1764808600.665694,,,,,,,0.627808153629303,0.13167637586593628,0.27259817719459534,-0.29088330268859863,3.067714214324951,-3.202402114868164
1764808600.669388,-0.9864876563519239,4.353443631061912,-1.1158959804229438,2.5393104553222656,-0.14706598222255707,3.4194235801696777,,,,,,
1764808600.675724,,,,,,,0.642653226852417,0.14292758703231812,0.267932653427124,-0.19136591255664825,3.0686490535736084,-3.157674789428711
1764808600.67944,-0.6452320867151021,4.6141813103944065,-1.2087395376846193,2.4956581592559814,-0.026704423129558563,3.449594020843506,,,,,,
1764808600.685754,,,,,,,0.6463911533355713,0.1077108383178711,0.2731747627258301,-0.1442607194185257,3.0725979804992676,-3.1056177616119385
1764808600.689492,-0.44625674381256103,4.725667754936218,-1.3129495614826678,2.4522290229797363,0.048366397619247437,3.472991704940796,,,,,,
1764808600.695784,,,,,,,0.6481038331985474,0.03894585371017456,0.24299445748329163,-0.1346430480480194,3.0669400691986084,-3.0396127700805664
1764808600.699544,-0.4836760816246271,4.628651734295487,-1.210509031575173,2.4152181148529053,0.05123595893383026,3.4523260593414307,,,,,,
1764808600.705814,,,,,,,0.6394672989845276,-0.013423621654510498,0.2227686643600464,-0.19306720793247223,3.0519235134124756,-3.015207290649414
1764808600.709597,-0.6240542741298675,4.3945892959207296,-1.049175875455141,2.3963849544525146,-0.007061093579977751,3.389014482498169,,,,,,
1764808600.715844,,,,,,,0.6113333106040955,-0.049922168254852295,0.21738648414611816,-0.24941447377204895,3.0581860542297363,-2.9679977893829346
1764808600.719649,-0.662239335617423,4.137583788853884,-0.8162427333712577,2.39094877243042,-0.07911957800388336,3.2931947708129883,,,,,,
1764808600.725875,,,,,,,0.5870764851570129,-0.033458828926086426,0.23326599597930908,-0.45114731788635254,3.0614871978759766,-2.971858024597168
1764808600.729701,-0.6101461602866649,4.015850091063976,-0.7461503754913806,2.374866485595703,-0.1534832864999771,3.213432788848877,,,,,,
1764808600.735905,,,,,,,0.5887607336044312,-0.02004373073577881,0.20432984828948975,-0.4664095640182495,3.0253524780273438,-2.8203139305114746
1764808600.739753,-0.3587608311891556,4.033286379033327,-0.7470357800237833,2.311441421508789,-0.22277633845806122,3.1722121238708496,,,,,,
1764808600.745935,,,,,,,0.6096488237380981,-0.013575553894042969,0.1415572166442871,-0.463540256023407,2.9420204162597656,-2.719515562057495
1764808600.749805,-0.09486731817424297,4.0032314325094225,-0.5478729517251253,2.2140426635742188,-0.2881017327308655,3.1506922245025635,,,,,,
1764808600.755965,,,,,,,0.587209165096283,0.004925131797790527,0.1017458438873291,-0.46218836307525635,2.8743438720703125,-2.6152446269989014
1764808600.759858,-0.03797989430427551,3.78967343750298,-0.37163266078718005,2.120410919189453,-0.3481656014919281,3.1069252490997314,,,,,,
1764808600.765995,,,,,,,0.5688066482543945,-0.05718943476676941,0.0679275393486023,-0.42255812883377075,2.8245961666107178,-2.469475030899048
1764808600.76991,-0.28392040199935437,3.5848657351851463,-0.1663614326108247,2.025668144226074,-0.39248502254486084,3.0138721466064453,,,,,,
1764808600.776025,,,,,,,0.5536380410194397,-0.10264229774475098,0.060386836528778076,-0.38454851508140564,2.7632555961608887,-2.3511860370635986
1764808600.779963,-0.7800994068443775,3.444356609776616,0.042667759859561914,1.9696975946426392,-0.3744872510433197,2.8826189041137695,,,,,,
1764808600.786055,,,,,,,0.5283651351928711,-0.11540606617927551,0.03328597545623779,-0.3423003852367401,2.6837351322174072,-2.2629005908966064
1764808600.790015,-1.2972633320510387,3.3107284760534763,-0.0694908848553896,1.9333710670471191,-0.34753286838531494,2.7393152713775635,,,,,,
1764808600.796085,,,,,,,0.5063704252243042,-0.11528021097183228,-0.00961005687713623,-0.3681846559047699,2.604933023452759,-2.186105489730835
1764808600.800067,-1.6112348811820147,3.1006554005533453,0.09000584961771964,1.8584238290786743,-0.32696768641471863,2.593402624130249,,,,,,
1764808600.806115,,,,,,,0.5002738833427429,-0.12096494436264038,-0.003672361373901367,-0.32770591974258423,2.5206239223480225,-2.0383288860321045
1764808600.810119,-1.7074366628304123,2.8834511579990387,0.40323242560029027,1.778041124343872,-0.2809281647205353,2.451486349105835,,,,,,
1764808600.816145,,,,,,,0.49144572019577026,-0.15648087859153748,-0.019112467765808105,-0.31553879380226135,2.4094440937042236,-1.9483084678649902
1764808600.820172,-1.6806442252337932,2.714174203267693,0.43121115037202834,1.6816152334213257,-0.2204536348581314,2.2947869300842285,,,,,,
1764808600.826175,,,,,,,0.4668886661529541,-0.17125678062438965,-0.006363317370414734,-0.2619272470474243,2.3306028842926025,-1.8276302814483643
1764808600.830224,-1.6064578760385513,2.5520944665640592,0.3658405237844214,1.5538969039916992,-0.1516539305448532,2.1084864139556885,,,,,,
1764808600.836205,,,,,,,0.45410680770874023,-0.16745507717132568,-0.02632582187652588,-0.17874950170516968,2.200841188430786,-1.762863278388977
1764808600.840276,-1.698928946726024,2.383400864678621,0.1653846234679222,1.4339087009429932,-0.10288453847169876,1.9401154518127441,,,,,,
1764808600.846236,,,,,,,0.4454638957977295,-0.12730011343955994,-0.05134330689907074,-0.049176063388586044,2.0940768718719482,-1.67828369140625
1764808600.850328,-1.3717466183662415,2.612899356138706,0.07970540487766266,1.358469009399414,-0.10557914525270462,1.8492257595062256,,,,,,
1764808600.856266,,,,,,,0.46986401081085205,-0.07864955067634583,-0.08216387033462524,0.09647262096405029,1.9345874786376953,-1.6067496538162231
1764808600.860381,-0.7722934092685579,3.3549604164898392,0.4067722901642322,1.3019609451293945,-0.11684111505746841,1.7442563772201538,,,,,,
1764808600.866296,,,,,,,0.47232747077941895,-0.08946169912815094,-0.13722866773605347,0.17509526014328003,1.7839255332946777,-1.4331238269805908
1764808600.870433,-0.9518938973546027,3.433673887720704,1.061379377337545,1.2375493049621582,-0.08292652666568756,1.6316187381744385,,,,,,
1764808600.876326,,,,,,,0.4668245315551758,-0.15942218899726868,-0.18523961305618286,0.11057332158088684,1.6095881462097168,-1.3032565116882324
1764808600.880485,-1.0561711411699652,2.8842104519337415,1.5055144528210163,1.165408730506897,-0.0943789929151535,1.4879958629608154,,,,,,
1764808600.886356,,,,,,,0.44383835792541504,-0.2246866524219513,-0.22788402438163757,0.006473285146057606,1.4576917886734009,-1.197440266609192
1764808600.890538,-1.1926987957268953,2.229303358900547,1.8475884992338716,1.0675239562988281,-0.15064653754234314,1.3018333911895752,,,,,,
1764808600.896386,,,,,,,0.41253870725631714,-0.22258153557777405,-0.2733958959579468,-0.0905013456940651,1.3396927118301392,-1.0817543268203735
1764808600.90059,-1.310351361683011,2.031803349247575,2.20466108507514,0.9546120166778564,-0.18641731142997742,1.1243648529052734,,,,,,
1764808600.906416,,,,,,,0.41559237241744995,-0.19206281006336212,-0.3118257522583008,-0.09794674068689346,1.2036387920379639,-0.9357606172561646
1764808600.910642,-1.3259782621428369,2.3936469488829375,2.5050866316735743,0.8333829641342163,-0.14927807450294495,0.9885289669036865,,,,,,
1764808600.916446,,,,,,,0.45989328622817993,-0.1591610312461853,-0.32799962162971497,-0.026488445699214935,1.0371224880218506,-0.7439089417457581
1764808600.920694,-1.3955556562379001,2.832050056585669,2.6291768294617532,0.7217786908149719,-0.04491032660007477,0.8702820539474487,,,,,,
1764808600.926476,,,,,,,0.49556654691696167,-0.13504919409751892,-0.3486824631690979,-0.00744418241083622,0.8460534811019897,-0.576842725276947
1764808600.930747,-1.4940075549006462,3.144529029071331,2.5107038870334626,0.604978084564209,0.034420982003211975,0.7284407615661621,,,,,,
1764808600.936506,,,,,,,0.5018261671066284,-0.17259284853935242,-0.3681429326534271,0.06336610019207001,0.671118974685669,-0.3825279176235199
1764808600.940799,-1.5490328381605445,3.132759096300602,2.562989370065927,0.4648371636867523,0.06729813665151596,0.5461674332618713,,,,,,
1764808600.946536,,,,,,,0.4962059259414673,-0.20348131656646729,-0.35827165842056274,0.1166253313422203,0.49901965260505676,-0.22230415046215057
1764808600.950851,-1.5521423484832046,2.8519536114513873,2.647989374220371,0.33671194314956665,0.06242907792329788,0.33235397934913635,,,,,,
1764808600.956566,,,,,,,0.48572713136672974,-0.2033131718635559,-0.34069526195526123,0.1864738166332245,0.34475284814834595,-0.046906568109989166
1764808600.960903,-1.5754204943485557,2.8064152645915743,2.533478028899431,0.21811793744564056,0.05899365618824959,0.11831210553646088,,,,,,
1764808600.966597,,,,,,,0.4951167702674866,-0.2031879723072052,-0.32297438383102417,0.2992735803127289,0.19662171602249146,0.1567850410938263
1764808600.970956,-1.5890291868537663,3.0788872208595275,2.5222926180183887,0.12927621603012085,0.10252968221902847,-0.06960773468017578,,,,,,
1764808600.976627,,,,,,,0.5063287615776062,-0.18603718280792236,-0.30288007855415344,0.4126519560813904,0.0472833514213562,0.3634999096393585
1764808600.981008,-1.6454520619519053,3.3744828630834816,2.43524547207579,0.05962623655796051,0.19995789229869843,-0.2352304309606552,,,,,,
1764808600.986657,,,,,,,0.5077494382858276,-0.19349506497383118,-0.2953888475894928,0.5258663892745972,-0.08281073719263077,0.5595695376396179
1764808600.99106,-1.7551872789122163,3.575367838999629,2.305590625897795,-0.0390702486038208,0.3085722327232361,-0.4084536135196686,,,,,,
1764808600.996687,,,,,,,0.517015278339386,-0.19431215524673462,-0.29391658306121826,0.6580533385276794,-0.2137349247932434,0.7392128705978394
1764808601.001112,-1.8984581241190432,3.6463971854686736,2.3619804755091667,-0.15790320932865143,0.3982750177383423,-0.5972586274147034,,,,,,
1764808601.006717,,,,,,,0.5435125827789307,-0.16664274036884308,-0.29795345664024353,0.7683334946632385,-0.3961241841316223,0.9114048480987549
1764808601.011165,-1.9074093462072312,3.6470296381533145,2.2858311556778848,-0.27249690890312195,0.43015092611312866,-0.7893193960189819,,,,,,
1764808601.016747,,,,,,,0.5609652400016785,-0.1771664023399353,-0.2897484302520752,0.8499246835708618,-0.5790937542915344,1.1007874011993408
1764808601.021217,-1.7625180601917205,3.5678000340938567,2.0521581550121306,-0.39731502532958984,0.43192926049232483,-0.9899716973304749,,,,,,
1764808601.026777,,,,,,,0.5519430041313171,-0.22412966191768646,-0.2670654058456421,0.9044105410575867,-0.7261404395103455,1.2798829078674316
1764808601.031269,-1.6736574350863693,3.527311956360936,1.9020574637852607,-0.5321440100669861,0.4356382489204407,-1.1905425786972046,,,,,,
1764808601.036807,,,,,,,0.5445934534072876,-0.24722811579704285,-0.23240381479263306,0.9547815322875977,-0.8800546526908875,1.4579048156738281
1764808601.041322,-1.7078709625944495,3.563240763354301,1.6947826407015323,-0.6516973972320557,0.4521755278110504,-1.3811991214752197,,,,,,
1764808601.046837,,,,,,,0.5391225814819336,-0.2490379959344864,-0.20167595148086548,1.067030906677246,-1.0419679880142212,1.659635305404663
1764808601.056867,,,,,,,0.5202668905258179,-0.24188843369483948,-0.18094003200531006,1.1554081439971924,-1.1735864877700806,1.8282155990600586
1764808601.059541,-1.878793930967152,3.314048560386896,1.0069114356994628,-0.8439357876777649,0.5001204013824463,-1.7145150899887085,,,,,,
1764808601.066897,,,,,,,0.4943801760673523,-0.23496639728546143,-0.14569273591041565,1.1794248819351196,-1.2817329168319702,1.95554780960083
1764808601.069592,-2.028471866737306,3.273561651697755,0.8228092522799968,-0.9557928442955017,0.5198357701301575,-1.8998825550079346,,,,,,
1764808601.076927,,,,,,,0.48859041929244995,-0.26569032669067383,-0.11137118935585022,1.207302212715149,-1.3554714918136597,2.102846622467041
1764808601.079645,-2.162272434417903,3.3420337148994204,0.6631893298186361,-1.071415662765503,0.5537015795707703,-2.095782518386841,,,,,,
1764808601.086958,,,,,,,0.5100840926170349,-0.29121387004852295,-0.07636600732803345,1.2374718189239502,-1.4237619638442993,2.2376861572265625
1764808601.089697,-2.3262805088356138,3.489495728185773,0.5578546859048307,-1.1745465993881226,0.620212733745575,-2.301347494125366,,,,,,
1764808601.096988,,,,,,,0.5348398685455322,-0.27674999833106995,-0.048694908618927,1.2655694484710693,-1.4885348081588745,2.367992401123047
1764808601.099749,-2.4063158763200043,3.7444606693357225,0.48949718899354333,-1.2582001686096191,0.7010393142700195,-2.4948337078094482,,,,,,
1764808601.107018,,,,,,,0.5531200170516968,-0.24590134620666504,-0.0432010293006897,1.297940969467163,-1.5948745012283325,2.5063416957855225
1764808601.109801,-2.3648472631171344,3.8655630834847687,0.3530464721303433,-1.3162442445755005,0.7611148953437805,-2.6638567447662354,,,,,,
1764808601.117048,,,,,,,0.5353225469589233,-0.22767645120620728,-0.033711254596710205,1.285837173461914,-1.6704816818237305,2.617130994796753
1764808601.119854,-2.2058009027600285,3.7396816183656454,0.2685796250045299,-1.3625293970108032,0.7907547354698181,-2.8133046627044678,,,,,,
1764808601.127078,,,,,,,0.5013753175735474,-0.21208912134170532,-0.018946021795272827,1.155523419380188,-1.6681034564971924,2.6864211559295654
1764808601.129906,-2.01335788423568,3.737529993289709,0.33821715178899464,-1.4151854515075684,0.7853948473930359,-2.952793836593628,,,,,,
1764808601.137108,,,,,,,0.501280665397644,-0.21985524892807007,0.0066055357456207275,0.9941142201423645,-1.706605315208435,2.7552878856658936
1764808601.139958,-1.7654153890684245,3.805499952188134,0.3261246360003948,-1.482528805732727,0.7417986392974854,-3.0772714614868164,,,,,,
1764808601.147138,,,,,,,0.5346788763999939,-0.2502540349960327,0.03128989040851593,0.9231465458869934,-1.7493906021118164,2.9080259799957275
1764808601.15001,-1.5001345133483408,3.8885260259211063,0.26827925381846723,-1.542952299118042,0.6839409470558167,-3.1976871490478516,,,,,,
1764808601.157168,,,,,,,0.5665073990821838,-0.23635229468345642,0.04645341634750366,0.9661269187927246,-1.7679872512817383,3.062258720397949
1764808601.160063,-1.3596902698695659,4.160013647326827,0.25464107949044557,-1.596740961074829,0.6394268870353699,-3.31189227104187,,,,,,
1764808601.167198,,,,,,,0.5850009918212891,-0.18727591633796692,0.05674338340759277,1.0659624338150024,-1.7821093797683716,3.2178843021392822
1764808601.170115,-1.3861416389435528,4.466215439239144,0.2380383197357878,-1.6384713649749756,0.6485822796821594,-3.4232566356658936,,,,,,
1764808601.177228,,,,,,,0.5976995825767517,-0.160792738199234,0.06278826296329498,1.0466375350952148,-1.8381942510604858,3.328667163848877
1764808601.180167,-1.5020061524391173,4.562618880939484,0.03749941731095314,-1.6424318552017212,0.6821752786636353,-3.5348803997039795,,,,,,
1764808601.187258,,,,,,,0.5869486331939697,-0.15585386753082275,0.07411611080169678,0.9514930248260498,-1.9012283086776733,3.4317169189453125
1764808601.19022,-1.520381182563305,4.319730746552348,-0.2603004752253182,-1.6351028680801392,0.697812557220459,-3.640178918838501,,,,,,
1764808601.197288,,,,,,,0.5497512817382812,-0.1444936990737915,0.08790428936481476,0.751072883605957,-1.9364925622940063,3.514829158782959
1764808601.200272,-1.3644815957993268,3.8185540795505046,-0.564044918847084,-1.6465457677841187,0.6881377100944519,-3.7515289783477783,,,,,,
1764808601.207319,,,,,,,0.5054747462272644,-0.09585565328598022,0.12207742035388947,0.42218685150146484,-1.9807460308074951,3.5298264026641846
1764808601.210324,-0.9867015913635492,3.375746014887094,-0.8986077128469944,-1.6721522808074951,0.6458272933959961,-3.841411590576172,,,,,,
1764808601.217349,,,,,,,0.4782956838607788,-0.06704539060592651,0.16390860080718994,0.19227102398872375,-1.9934715032577515,3.6311135292053223
1764808601.220376,-0.327148133829236,3.221560246303677,-1.0482651903510094,-1.7129426002502441,0.5709876418113708,-3.8932688236236572,,,,,,
1764808601.227379,,,,,,,0.49333781003952026,-0.09953588247299194,0.1824645847082138,0.14728650450706482,-1.9562119245529175,3.834923028945923
1764808601.230429,0.33644963065981864,3.4215357061594722,-0.8508516899377108,-1.7719788551330566,0.49609899520874023,-3.907750129699707,,,,,,
1764808601.237409,,,,,,,0.5399746298789978,-0.14205998182296753,0.17489761114120483,0.2212679386138916,-1.914186716079712,4.010225772857666
1764808601.240481,0.4691220710933208,3.829560626733303,-0.4131131470909342,-1.815355658531189,0.45174530148506165,-3.9271154403686523,,,,,,
1764808601.247439,,,,,,,0.58320152759552,-0.14610689878463745,0.16592776775360107,0.22003144025802612,-1.9065607786178589,4.092372417449951
1764808601.250533,-0.06768705030381679,4.196409487310052,-0.09670801413748413,-1.8231446743011475,0.4003729522228241,-3.984814167022705,,,,,,
1764808601.257469,,,,,,,0.6100459098815918,-0.11614829301834106,0.15149998664855957,0.14201755821704865,-1.9085887670516968,4.142500877380371
1764808601.260585,-0.8853408195167779,4.346550948938727,0.0049801265001296995,-1.8081713914871216,0.34849098324775696,-4.058468341827393,,,,,,
1764808601.267499,,,,,,,0.6218376755714417,-0.05933457612991333,0.1293715238571167,0.03863097354769707,-1.9267195463180542,4.159204483032227
1764808601.270638,-1.501904445630312,4.2188656492680305,-0.21398816658463327,-1.7913172245025635,0.3203672170639038,-4.147780895233154,,,,,,
1764808601.277529,,,,,,,0.6219897866249084,0.01710563898086548,0.13854992389678955,-0.02185322530567646,-2.026890993118286,4.155440807342529
1764808601.28069,-1.5751643276304006,3.8433886610776185,-0.7575607542347162,-1.7845956087112427,0.35321906208992004,-4.239936351776123,,,,,,
1764808601.287559,,,,,,,0.5921682119369507,0.09645402431488037,0.2122955322265625,-0.03338976949453354,-2.0674731731414795,4.180694580078125
1764808601.290742,-1.1659715323209763,3.5406226888328787,-1.4056260916143655,-1.8155100345611572,0.48822054266929626,-4.327908039093018,,,,,,
1764808601.297589,,,,,,,0.539922297000885,0.12167602777481079,0.2626338601112366,-0.001974445767700672,-1.9612858295440674,4.231016159057617
1764808601.300795,-0.49457858391106124,3.6538834495708343,-1.7986153556197881,-1.8689889907836914,0.6600490212440491,-4.389780521392822,,,,,,
1764808601.307619,,,,,,,0.5302431583404541,0.08268535137176514,0.30056482553482056,0.028491051867604256,-1.9106825590133667,4.262649059295654
1764808601.310847,0.2503127314299345,4.1201553919300435,-1.768760315582156,-1.905787706375122,0.7573830485343933,-4.425230979919434,,,,,,
1764808601.317649,,,,,,,0.5579752326011658,0.0926026701927185,0.32520735263824463,0.14806899428367615,-1.86150062084198,4.331792831420898
1764808601.320899,0.7705342906415462,4.454799726733565,-1.5672604226380586,-1.9144028425216675,0.7522777318954468,-4.448976516723633,,,,,,
1764808601.32768,,,,,,,0.5877419710159302,0.1510075330734253,0.2916717529296875,0.3044940233230591,-1.795061707496643,4.41807746887207
1764808601.330951,0.9079834439575671,4.743752569942176,-1.2891548443973064,-1.8830829858779907,0.6648155450820923,-4.486665725708008,,,,,,
1764808601.33771,,,,,,,0.5999007225036621,0.17821353673934937,0.2960308790206909,0.2606721520423889,-1.755008578300476,4.388119220733643
1764808601.341004,0.8430389703601598,4.845523968416452,-0.946230976222083,-1.7924599647521973,0.5561423897743225,-4.535359859466553,,,,,,
1764808601.34774,,,,,,,0.5760648250579834,0.19291436672210693,0.28491830825805664,0.3008270263671875,-1.595946192741394,4.380523681640625
1764808601.351056,0.8723042278110981,4.926223060506582,-0.28427688728682693,-1.7036713361740112,0.43714651465415955,-4.536792755126953,,,,,,
1764808601.35777,,,,,,,0.5836907625198364,0.21566390991210938,0.2249969244003296,0.44536343216896057,-1.5296868085861206,4.371316432952881
1764808601.361108,0.8521960902839899,5.085688815319537,0.1779168458480388,-1.6879810094833374,0.35391560196876526,-4.482150554656982,,,,,,
1764808601.3678,,,,,,,0.622148871421814,0.26542961597442627,0.1736220121383667,0.42718467116355896,-1.5879793167114258,4.3537187576293945
1764808601.37116,0.6526356409698725,4.98948703367114,-0.3538707210600376,-1.7151663303375244,0.3394607603549957,-4.411555767059326,,,,,,
1764808601.37783,,,,,,,0.6413568258285522,0.2602388262748718,0.14167296886444092,0.18471021950244904,-1.7352774143218994,4.292287349700928
1764808601.381213,0.5930576628416776,4.472938902275264,-1.270052084520459,-1.7972370386123657,0.3133488595485687,-4.388603687286377,,,,,,
1764808601.38786,,,,,,,0.6255084872245789,0.22175776958465576,0.15322351455688477,-0.014838303439319134,-1.7015786170959473,4.292581081390381
1764808601.391265,1.0455997705340385,4.030717989850044,-1.506432736709714,-1.9532841444015503,0.2766430377960205,-4.406408309936523,,,,,,
1764808601.39789,,,,,,,0.6146984100341797,0.23883843421936035,0.20448744297027588,-0.11114738136529922,-1.6667380332946777,4.2606730461120605
1764808601.401317,1.898331867390871,4.171610269357264,-1.407497730705142,-2.092686414718628,0.264421671628952,-4.40492057800293,,,,,,
1764808601.40792,,,,,,,0.6273370385169983,0.3511105179786682,0.30907464027404785,-0.12512259185314178,-1.6880452632904053,4.191951274871826
1764808601.41137,2.689574015018344,4.7378582512065766,-1.5211141730129718,-2.101832389831543,0.2507284879684448,-4.343884468078613,,,,,,
1764808601.41795,,,,,,,0.6234351396560669,0.4302753210067749,0.3846004009246826,-0.0782228633761406,-1.6679368019104004,4.200572490692139
1764808601.421422,2.93647080052495,5.442645227435231,-1.7824135778814554,-1.986585259437561,0.16709335148334503,-4.22258186340332,,,,,,
1764808601.42798,,,,,,,0.5866057872772217,0.432273268699646,0.4306870698928833,-0.17529748380184174,-1.6744245290756226,4.125682353973389
1764808601.431474,2.812141825544834,5.904662434959412,-2.212658513569832,-1.7905744314193726,0.03300905227661133,-4.105576992034912,,,,,,
1764808601.43801,,,,,,,0.5181233882904053,0.43747013807296753,0.46015334129333496,-0.34983694553375244,-1.616105556488037,3.978804349899292
1764808601.441526,2.749524918112159,5.828345503476262,-2.5097780043601987,-1.5845621824264526,-0.11586630344390869,-4.011767864227295,,,,,,
1764808601.448041,,,,,,,0.4548737406730652,0.42219066619873047,0.4429670572280884,-0.42792803049087524,-1.4921971559524536,3.9177911281585693
1764808601.451579,2.8925100782454014,5.368657615682483,-2.218579720312357,-1.4414076805114746,-0.2550087571144104,-3.9430902004241943,,,,,,
1764808601.458071,,,,,,,0.438692182302475,0.38677018880844116,0.4029015302658081,-0.6013898849487305,-1.4618659019470215,3.7737338542938232
1764808601.461631,3.0128795019447803,4.741268644171953,-1.84488260127604,-1.3623374700546265,-0.372069388628006,-3.913020133972168,,,,,,
1764808601.468101,,,,,,,0.4418681263923645,0.38060182332992554,0.3878124952316284,-0.8555684089660645,-1.4036675691604614,3.6371021270751953
1764808601.471683,3.191308315902948,4.193842267170548,-1.6571704106658696,-1.3394843339920044,-0.4915100336074829,-3.8892955780029297,,,,,,
1764808601.478131,,,,,,,0.4605252146720886,0.3954848051071167,0.3610728979110718,-0.9894018769264221,-1.3321638107299805,3.623746633529663
1764808601.481736,3.387417747980356,3.971004402643442,-1.6062597231179474,-1.369673252105713,-0.5779343247413635,-3.8258438110351562,,,,,,
1764808601.488161,,,,,,,0.4917301535606384,0.4173938035964966,0.3073486089706421,-0.9520494341850281,-1.33197820186615,3.653459072113037
1764808601.491788,3.3648224698126312,3.8262545709252356,-1.657718107676506,-1.4492663145065308,-0.577312707901001,-3.7387912273406982,,,,,,
1764808601.498191,,,,,,,0.5054713487625122,0.4660015106201172,0.24917256832122803,-0.8594639301300049,-1.3752737045288086,3.62264084815979
1764808601.50184,3.052674921238422,3.563352699296176,-1.6929869894564151,-1.5473746061325073,-0.5295095443725586,-3.659756660461426,,,,,,
1764808601.508221,,,,,,,0.48556748032569885,0.5020790100097656,0.22745561599731445,-0.731243371963501,-1.418318748474121,3.5989699363708496
1764808601.511892,2.6805758850485084,3.3631823013901707,-1.6852666243374346,-1.6181670427322388,-0.49132728576660156,-3.620379686355591,,,,,,
1764808601.518251,,,,,,,0.4451426565647125,0.5010493993759155,0.2769627571105957,-0.6354501247406006,-1.4370167255401611,3.5620954036712646
1764808601.521945,2.549321494719386,3.387104444247484,-1.9183254386276005,-1.6251921653747559,-0.4424837529659271,-3.612713098526001,,,,,,
1764808601.528281,,,,,,,0.3993625044822693,0.49667102098464966,0.321230411529541,-0.523259162902832,-1.3803377151489258,3.498497486114502
1764808601.531997,2.6176854213714598,3.623055765108764,-2.007878868302703,-1.615303874015808,-0.4205302596092224,-3.5908193588256836,,,,,,
1764808601.538311,,,,,,,0.37309885025024414,0.4898498058319092,0.3115224838256836,-0.3473745882511139,-1.3027923107147217,3.453676700592041
1764808601.542049,2.7292057681828736,3.854581086221337,-1.898971334338188,-1.6200323104858398,-0.4449447691440582,-3.5269272327423096,,,,,,
1764808601.548341,,,,,,,0.3775580823421478,0.48320502042770386,0.30128467082977295,-0.21376538276672363,-1.3064243793487549,3.382368564605713
1764808601.552102,2.777342899364233,3.8789164860546586,-1.99747730127573,-1.6334037780761719,-0.47613289952278137,-3.4497480392456055,,,,,,
1764808601.558371,,,,,,,0.38268375396728516,0.4877803921699524,0.29747867584228516,-0.16841430962085724,-1.2757655382156372,3.31954288482666
1764808601.562154,2.7865847749620674,3.7486651352882383,-2.0321984860450026,-1.6812143325805664,-0.49622976779937744,-3.382370710372925,,,,,,
1764808601.568401,,,,,,,0.3941131830215454,0.49197089672088623,0.2609217166900635,-0.17389215528964996,-1.2738858461380005,3.254755973815918
1764808601.572206,2.8192671473801134,3.638465807947516,-1.9247844055086374,-1.76349937915802,-0.553558349609375,-3.3193018436431885,,,,,,
1764808601.578432,,,,,,,0.41735002398490906,0.44946539402008057,0.24685561656951904,-0.14809010922908783,-1.3248614072799683,3.2600345611572266
1764808601.582258,2.9211913983285425,3.449149689272046,-1.8980209017455576,-1.8530268669128418,-0.6430964469909668,-3.2537007331848145,,,,,,
1764808601.588462,,,,,,,0.42571234703063965,0.3947710394859314,0.25504231452941895,-0.16056248545646667,-1.3991074562072754,3.2647836208343506
1764808601.592311,2.8372575621008873,3.246800486022234,-2.1083739632308482,-1.9658430814743042,-0.7488502860069275,-3.2194063663482666,,,,,,
1764808601.598492,,,,,,,0.4159606695175171,0.34849709272384644,0.2541431188583374,-0.18006467819213867,-1.431936502456665,3.2668569087982178
1764808601.602363,2.5822932054728267,3.195043995299935,-2.2713281446814535,-2.096046209335327,-0.8975625038146973,-3.2280290126800537,,,,,,
1764808601.608522,,,,,,,0.418351948261261,0.2817484736442566,0.27312803268432617,-0.2754068970680237,-1.455786943435669,3.2565958499908447
1764808601.612415,2.316773552560806,3.3606676882207394,-2.3390695555210113,-2.2174291610717773,-1.0953797101974487,-3.266767740249634,,,,,,
1764808601.618552,,,,,,,0.44492608308792114,0.23904401063919067,0.328654408454895,-0.3758416771888733,-1.4612072706222534,3.2630038261413574
1764808601.622468,2.1354162839353084,3.741021342536807,-2.453803019160032,-2.2785911560058594,-1.3040965795516968,-3.30444073677063,,,,,,
1764808601.628582,,,,,,,0.48092740774154663,0.2199295163154602,0.4111289978027344,-0.41682666540145874,-1.540144681930542,3.3154544830322266
1764808601.63252,1.9705302576392887,4.15989498938322,-2.7930115931391715,-2.2838807106018066,-1.4789884090423584,-3.3208208084106445,,,,,,
1764808601.638612,,,,,,,0.5005151033401489,0.21875327825546265,0.4632222652435303,-0.4405149519443512,-1.6030621528625488,3.3898770809173584
1764808601.642572,1.7082219679892061,4.517810017397999,-3.0490450403034686,-2.281461000442505,-1.6067367792129517,-3.3398025035858154,,,,,,
1764808601.648642,,,,,,,0.5020129680633545,0.2244434952735901,0.486045241355896,-0.4556047022342682,-1.6298298835754395,3.4862887859344482
1764808601.652624,1.4104355377227067,4.623583344990014,-3.1214076812028884,-2.2718846797943115,-1.6926064491271973,-3.3779239654541016,,,,,,
1764808601.658672,,,,,,,0.4973098635673523,0.18028652667999268,0.49867379665374756,-0.42010658979415894,-1.6585164070129395,3.5994911193847656
1764808601.662677,1.113553947341442,4.35799705658257,-3.1581238391816613,-2.2500476837158203,-1.751354455947876,-3.437678575515747,,,,,,
1764808601.668702,,,,,,,0.48309051990509033,0.12540435791015625,0.5031346082687378,-0.4746617078781128,-1.6568050384521484,3.7036798000335693
1764808601.672729,0.8370587269067764,3.9298979007512327,-3.0225170988619325,-2.2434067726135254,-1.8057961463928223,-3.515949249267578,,,,,,
1764808601.678732,,,,,,,0.4701831340789795,0.106045663356781,0.5031620860099792,-0.6475517153739929,-1.6409403085708618,3.805119752883911
1764808601.682781,0.5632137287199497,3.550305293935537,-2.7717174606978894,-2.2552690505981445,-1.870624303817749,-3.6160314083099365,,,,,,
1764808601.688762,,,,,,,0.4738425612449646,0.06976556777954102,0.5064616799354553,-0.8654339909553528,-1.6066960096359253,3.8844311237335205
1764808601.692834,0.2759644745588302,3.3242806160658596,-2.563978381103277,-2.278329372406006,-1.926371693611145,-3.7296435832977295,,,,,,
1764808601.698793,,,,,,,0.483833372592926,0.03934818506240845,0.5078762173652649,-1.2488501071929932,-1.5365360975265503,3.9315149784088135
1764808601.702886,0.12476882770210504,3.2995641079604625,-2.311281384885311,-2.3006131649017334,-1.973930835723877,-3.84734845161438,,,,,,
1764808601.708823,,,,,,,0.5017950534820557,0.05892467498779297,0.5067601203918457,-1.631949782371521,-1.4771777391433716,3.9718799591064453
1764808601.712938,0.12529723549038171,3.4124943215698003,-2.113500074072927,-2.3146908283233643,-2.0207276344299316,-3.947378396987915,,,,,,
1764808601.718853,,,,,,,0.5241273045539856,0.10574209690093994,0.4925241470336914,-1.9388014078140259,-1.468459129333496,4.039051055908203
1764808601.72299,0.268443431404233,3.510744267919659,-2.0858850680470464,-2.3309826850891113,-2.0536959171295166,-4.016071319580078,,,,,,
1764808601.728883,,,,,,,0.5379510521888733,0.17021167278289795,0.46678775548934937,-2.1238815784454346,-1.4713531732559204,4.128303527832031
1764808601.733043,0.44337563541829583,3.6168384980291126,-2.223550348331779,-2.3468010425567627,-2.045198917388916,-4.056882381439209,,,,,,
1764808601.738913,,,,,,,0.5424137711524963,0.21113601326942444,0.4535970687866211,-2.1978087425231934,-1.4471967220306396,4.2056660652160645
1764808601.743095,0.660066667753458,3.6223908714592454,-2.31334810815677,-2.3627727031707764,-1.9916387796401978,-4.082898139953613,,,,,,
1764808601.748943,,,,,,,0.5328292846679688,0.21074599027633667,0.4649984836578369,-2.1288058757781982,-1.354923963546753,4.292665481567383
1764808601.753147,0.8292553596794605,3.629359541428089,-2.288098077696562,-2.3567347526550293,-1.8902617692947388,-4.109521865844727,,,,,,
1764808601.758973,,,,,,,0.5187302827835083,0.2183590829372406,0.49164098501205444,-2.0225725173950195,-1.2508028745651245,4.344944477081299
1764808601.7632,0.9029002954743802,3.690227559366822,-2.2689072011448443,-2.320235252380371,-1.7502926588058472,-4.1467790603637695,,,,,,
1764808601.769003,,,,,,,0.5143448114395142,0.2829780876636505,0.49014103412628174,-1.8719000816345215,-1.167833685874939,4.374950885772705
1764808601.773252,0.8824936133921146,3.7541666553139685,-2.20839574155882,-2.271207094192505,-1.6107624769210815,-4.178792476654053,,,,,,
1764808601.779033,,,,,,,0.5176804065704346,0.3808934688568115,0.4631845951080322,-1.7520538568496704,-1.086532473564148,4.431746959686279
1764808601.783304,0.8175358419217169,3.8510032277345654,-2.1454510634765027,-2.22503662109375,-1.4952739477157593,-4.193404674530029,,,,,,
1764808601.789063,,,,,,,0.5289901494979858,0.4605714678764343,0.42994481325149536,-1.7069636583328247,-1.0245442390441895,4.443898677825928
1764808601.793356,0.8557632812462747,4.022103306239843,-2.0149796402186153,-2.190683603286743,-1.4059374332427979,-4.184761047363281,,,,,,
1764808601.799093,,,,,,,0.5390956997871399,0.4751471281051636,0.4019870162010193,-1.702377200126648,-0.9463018178939819,4.4323506355285645
1764808601.803409,1.053947839097306,4.131003825941682,-2.0404381988629696,-2.1306958198547363,-1.3069325685501099,-4.151453971862793,,,,,,
1764808601.809123,,,,,,,0.5258162021636963,0.4423157572746277,0.414192259311676,-1.68645179271698,-0.8361854553222656,4.3481364250183105
1764808601.813461,1.3703703615769742,4.248064855745435,-2.0670225466668604,-2.0566246509552,-1.1826270818710327,-4.098700046539307,,,,,,
1764808601.819153,,,,,,,0.5098078846931458,0.47036659717559814,0.4118804335594177,-1.6760612726211548,-0.6711978316307068,4.282517910003662
1764808601.823513,1.6879986796498299,4.562003379389643,-2.00809835627228,-1.989587664604187,-1.050537347793579,-4.033329486846924,,,,,,
1764808601.829184,,,,,,,0.5220114588737488,0.5685252547264099,0.38770198822021484,-1.560036301612854,-0.5346538424491882,4.183274269104004
1764808601.833566,1.9456801862820983,4.949397599866986,-1.8664520435273646,-1.947715163230896,-0.994362473487854,-3.950833320617676,,,,,,
1764808601.839214,,,,,,,0.5529898405075073,0.6586869955062866,0.3612598180770874,-1.3213385343551636,-0.38465526700019836,4.134479522705078
1764808601.843618,2.1716186471730468,5.517718880859017,-1.850960752145946,-1.8929730653762817,-0.9870406985282898,-3.8429670333862305,,,,,,
1764808601.849244,,,,,,,0.5962023735046387,0.7194706797599792,0.3490098714828491,-1.0879340171813965,-0.3926817774772644,4.04597282409668
1764808601.85367,2.4504338349878787,5.801954924678802,-2.339745262825489,-1.7446643114089966,-0.9598042964935303,-3.6988027095794678,,,,,,
1764808601.859274,,,,,,,0.5882135033607483,0.7250223159790039,0.3579179644584656,-0.9811851978302002,-0.471015989780426,3.844407320022583
1764808601.863723,2.6984800827905535,5.581429428747296,-2.6233795413598417,-1.5591001510620117,-0.9097437858581543,-3.531189203262329,,,,,,
1764808601.869304,,,,,,,0.5070125460624695,0.6838216781616211,0.3652840256690979,-1.0624140501022339,-0.42575502395629883,3.6223251819610596
1764808601.873775,2.8687422491669654,5.073324423786998,-2.4504750437811014,-1.4029933214187622,-0.8727985620498657,-3.372450828552246,,,,,,
1764808601.879334,,,,,,,0.41126906871795654,0.6425719261169434,0.38111770153045654,-1.2748173475265503,-0.2681470215320587,3.4115371704101562
1764808601.883827,2.935679650147259,4.623478131049871,-2.2564695982456207,-1.2903767824172974,-0.874466598033905,-3.2539560794830322,,,,,,
1764808601.889364,,,,,,,0.353005588054657,0.6591530442237854,0.3801109194755554,-1.482871174812317,-0.10451097786426544,3.254692554473877
1764808601.893879,3.000606588087976,4.42319696624577,-2.322471471941471,-1.1907068490982056,-0.9041171669960022,-3.1694905757904053,,,,,,
1764808601.899394,,,,,,,0.34399938583374023,0.7217162251472473,0.3440142869949341,-1.5701121091842651,-0.06247777119278908,3.1242048740386963
1764808601.903932,3.2625632878214117,4.327896517351269,-2.705363997085392,-1.0791300535202026,-0.9256340265274048,-3.092750072479248,,,,,,
1764808601.909424,,,,,,,0.3405619263648987,0.7703077793121338,0.3012860417366028,-1.5428669452667236,-0.09869968891143799,2.9507272243499756
1764808601.913984,3.738690269240737,4.06323201996386,-3.0184722073853014,-0.9727964997291565,-0.8915187120437622,-3.0057709217071533,,,,,,
1764808601.919454,,,,,,,0.30266016721725464,0.7976384162902832,0.2683369517326355,-1.5243200063705444,-0.09177999943494797,2.770765542984009
1764808601.924036,4.236255760008096,3.646120122092962,-3.112797089245915,-0.8664840459823608,-0.8010820150375366,-2.895988702774048,,,,,,
1764808601.929484,,,,,,,0.24313360452651978,0.8072941303253174,0.24085140228271484,-1.467118501663208,-0.028391171246767044,2.631495714187622
1764808601.934089,4.790968202364445,3.148896576631069,-2.9814380694985387,-0.7731399536132812,-0.6869048476219177,-2.754829168319702,,,,,,
1764808601.939514,,,,,,,0.1817435622215271,0.7935127019882202,0.21118372678756714,-1.2726786136627197,0.053075458854436874,2.537393808364868
1764808601.944141,5.2340299495279785,2.697442264175415,-2.744201092740893,-0.6918060183525085,-0.5581649541854858,-2.579890251159668,,,,,,
1764808601.949544,,,,,,,0.12188845872879028,0.7988743782043457,0.16471576690673828,-1.0316956043243408,0.11311029642820358,2.3909711837768555
1764808601.954193,5.483369452011585,2.2656056753814218,-2.438861470615864,-0.6025064587593079,-0.46700921654701233,-2.382783889770508,,,,,,
1764808601.959575,,,,,,,0.07312613725662231,0.8571882843971252,0.09312474727630615,-0.7819578647613525,0.12660907208919525,2.235909938812256
1764808601.964246,5.501905810177326,1.7304262010127305,-2.1214356893777846,-0.5131402015686035,-0.4330722689628601,-2.1889994144439697,,,,,,
1764808601.969605,,,,,,,0.025575637817382812,0.8958053588867188,0.019517555832862854,-0.4898295998573303,0.08788030594587326,2.105250835418701
