timestamp,phone_accel_x,phone_accel_y,phone_accel_z,phone_gyro_x,phone_gyro_y,phone_gyro_z,watch_accel_x,watch_accel_y,watch_accel_z,watch_gyro_x,watch_gyro_y,watch_gyro_z
1764808549.048703,-0.617954788210988,0.45870238388776774,0.0442196654766798,1.5259045362472534,-0.32049867510795593,2.3363475799560547,,,,,,
1764808549.050861,,,,,,,0.07835948467254639,0.13885286450386047,0.11573434621095657,-0.3963157832622528,0.0849713385105133,-2.9460787773132324
1764808549.058754,0.23366028731465338,-0.16377192757427692,-0.40356501855552196,1.4252210855484009,-0.2408837378025055,2.15386700630188,,,,,,
1764808549.060891,,,,,,,0.06864351034164429,0.1957763135433197,0.02584785223007202,-0.2643573582172394,0.15286463499069214,-2.944896936416626
1764808549.068807,1.3253328038461505,0.35537469588220116,-0.6971101579904556,1.3212769031524658,-0.06908267736434937,2.143242359161377,,,,,,
1764808549.070921,,,,,,,0.11088621616363525,0.2588564157485962,-0.0418548583984375,-0.01398560032248497,0.30674421787261963,-2.979205846786499
1764808549.078859,2.124272520238906,2.43297475066483,-0.5252960859969258,1.2393769025802612,0.04017376899719238,2.363438367843628,,,,,,
1764808549.080951,,,,,,,0.21081852912902832,0.30580347776412964,-0.03492056950926781,0.2399555891752243,0.43418365716934204,-3.0152738094329834
1764808549.088911,1.9133610942184924,4.469485254690051,-0.3673050799116492,1.2812844514846802,0.006437515374273062,2.725423812866211,,,,,,
1764808549.090982,,,,,,,0.36904507875442505,0.2253345549106598,0.042796313762664795,0.2586168944835663,0.3189910352230072,-3.1202945709228516
1764808549.098963,0.5458163114562631,5.141805839338899,-0.27554391105920073,1.45142662525177,-0.15340594947338104,3.01092791557312,,,,,,
1764808549.101012,,,,,,,0.4987490773200989,0.07414869964122772,0.13723081350326538,0.07408460229635239,0.07927297055721283,-3.253451347351074
1764808549.109015,-1.090841034143418,4.407447023928166,0.023251111727952956,1.6474593877792358,-0.3806646168231964,3.032280445098877,,,,,,
1764808549.111042,,,,,,,0.5290989875793457,-0.06597268581390381,0.2068159580230713,-0.2581753730773926,-0.0775374174118042,-3.330960750579834
1764808549.119068,-1.863636986106634,3.1206764443188906,0.5624667097449302,1.762067437171936,-0.6128563284873962,2.8266549110412598,,,,,,
1764808549.121072,,,,,,,0.4436963200569153,-0.08787941932678223,0.2345258593559265,-0.5518868565559387,-0.046320103108882904,-3.3289761543273926
1764808549.12912,-1.7620064574077725,1.924703156965971,0.8861857459083199,1.7833753824234009,-0.7888764142990112,2.557868242263794,,,,,,
1764808549.131102,,,,,,,0.30630606412887573,-0.050988808274269104,0.19241225719451904,-0.7243051528930664,0.10718902200460434,-3.334301710128784
1764808549.139172,-1.2170100840322673,0.9344529332101345,0.6298129837870597,1.768226981163025,-0.8140890598297119,2.3679792881011963,,,,,,
1764808549.141132,,,,,,,0.20618784427642822,-0.015980994328856468,0.11639106273651123,-0.7799035310745239,0.24958212673664093,-3.3454384803771973
1764808549.149224,-0.5641437395790592,0.44121407347023484,0.34532354972809554,1.732252597808838,-0.6656273603439331,2.3040831089019775,,,,,,
1764808549.151162,,,,,,,0.17879444360733032,0.014191798865795135,0.03788095340132713,-0.7063264846801758,0.40114954113960266,-3.314805507659912
1764808549.159276,0.08307084445646032,0.8300415416210889,0.33544805240184067,1.6495646238327026,-0.41912785172462463,2.3516483306884766,,,,,,
1764808549.161192,,,,,,,0.20208168029785156,0.07117390632629395,-0.028144601732492447,-0.47291919589042664,0.5487067699432373,-3.2203757762908936
1764808549.169327,0.43184210521932687,1.728532350090146,0.4066577238738537,1.5545586347579956,-0.1977415382862091,2.4761829376220703,,,,,,
1764808549.171222,,,,,,,0.27812492847442627,0.0761982724070549,-0.08588868379592896,-0.09914135187864304,0.5583745837211609,-3.1175220012664795
1764808549.17938,0.19176113720741123,2.2673826219260693,0.3989046255290508,1.4958466291427612,-0.0403607003390789,2.598970890045166,,,,,,
1764808549.181253,,,,,,,0.3546690344810486,0.03537501394748688,-0.087185800075531,0.25716519355773926,0.49490612745285034,-3.051104784011841
1764808549.189432,-0.4343229987822473,2.343810612568259,0.2649986977778375,1.4767322540283203,0.1001783162355423,2.632352352142334,,,,,,
1764808549.191283,,,,,,,0.3806987404823303,0.046397075057029724,-0.05456751585006714,0.6277869939804077,0.45095333456993103,-2.938253402709961
1764808549.199484,-0.9575019464947283,2.2299714674204587,0.29099340912550686,1.4845529794692993,0.2517071068286896,2.565079927444458,,,,,,
1764808549.201313,,,,,,,0.37048399448394775,0.04940822720527649,-0.027249813079833984,1.0138710737228394,0.4508814215660095,-2.8082635402679443
1764808549.209536,-1.0961953277181833,2.1718378428816796,0.6179189862452447,1.4765573740005493,0.40563294291496277,2.478358268737793,,,,,,
1764808549.211343,,,,,,,0.3437107801437378,0.026552170515060425,0.0015044808387756348,1.3637337684631348,0.531835675239563,-2.735402822494507
1764808549.219588,-1.1247276677846907,2.4880571709394452,0.9516028054535388,1.4241487979888916,0.5285454988479614,2.4301676750183105,,,,,,
1764808549.221373,,,,,,,0.3414657711982727,0.022443965077400208,0.01805335283279419,1.5467435121536255,0.6073474884033203,-2.685833215713501
1764808549.22964,-1.3932197606362402,3.0135785901248453,0.9521956567801535,1.3720275163650513,0.6276479363441467,2.432562828063965,,,,,,
1764808549.231403,,,,,,,0.41064226627349854,-0.023574531078338623,0.037904202938079834,1.606570839881897,0.5391334891319275,-2.638136625289917
1764808549.239692,-1.8395958930447696,3.2055449310481547,0.8309646478153765,1.3180644512176514,0.6904810070991516,2.432408094406128,,,,,,
1764808549.241433,,,,,,,0.4910051226615906,-0.13704469799995422,0.08353394269943237,1.4918580055236816,0.3920607268810272,-2.613269805908203
1764808549.249745,-2.2335924343965945,3.070504007917642,0.5029179577112197,1.2871438264846802,0.7711442112922668,2.365129232406616,,,,,,
1764808549.251463,,,,,,,0.5078876614570618,-0.2016465663909912,0.12540853023529053,1.2601264715194702,0.2626664936542511,-2.5044937133789062
1764808549.259797,-2.3233370027296245,2.6830413983792063,0.43940132495984435,1.2780624628067017,0.8620309829711914,2.235523223876953,,,,,,
1764808549.261493,,,,,,,0.46878767013549805,-0.2620428502559662,0.14180868864059448,1.0094414949417114,0.22171534597873688,-2.403702735900879
1764808549.269849,-1.9916582397334277,2.2645038516193625,0.7732569936037064,1.2434897422790527,0.9034402966499329,2.08564829826355,,,,,,
1764808549.271523,,,,,,,0.38085687160491943,-0.3158377408981323,0.1723296046257019,0.7904946804046631,0.3297613859176636,-2.326930522918701
1764808549.279901,-1.565698580148816,2.222786524352431,1.0591045642733574,1.1786820888519287,0.8762904405593872,1.9429211616516113,,,,,,
1764808549.281554,,,,,,,0.3333282470703125,-0.2954522371292114,0.15420615673065186,0.7027116417884827,0.4579164385795593,-2.187007188796997
1764808549.289953,-1.2204323135659099,2.362524665388465,1.2738719350695609,1.1405174732208252,0.767524003982544,1.850152611732483,,,,,,
1764808549.291584,,,,,,,0.3672586679458618,-0.2742778956890106,0.10953551530838013,0.7043273448944092,0.4270418584346771,-2.1181535720825195
1764808549.300005,-1.079318208001554,2.457837389242649,1.5507552780389784,1.1178933382034302,0.5696952939033508,1.8162338733673096,,,,,,
1764808549.301614,,,,,,,0.4075663685798645,-0.2745501697063446,0.07052469253540039,0.7581750154495239,0.3530355393886566,-2.087099075317383
1764808549.310057,-1.3158271627455949,2.360953470548987,1.6448796688914298,1.116951584815979,0.3653298616409302,1.8150417804718018,,,,,,
1764808549.311644,,,,,,,0.4035976529121399,-0.2749987244606018,0.04397159814834595,0.7981091141700745,0.31681710481643677,-2.044633150100708
1764808549.320109,-1.8107292795225978,2.0790946772545573,1.6866075175523756,1.1212602853775024,0.2023409754037857,1.8093026876449585,,,,,,
1764808549.321674,,,,,,,0.36084210872650146,-0.2720395624637604,0.04470419883728027,0.7872628569602966,0.304620623588562,-2.0129406452178955
1764808549.330161,-2.327483162623644,1.6905302439540624,1.577103186738491,1.113863229751587,0.09995687007904053,1.7732175588607788,,,,,,
1764808549.331704,,,,,,,0.3091176748275757,-0.2819831073284149,0.04885435104370117,0.7212785482406616,0.2831965386867523,-1.9427791833877563
1764808549.340213,-2.77066210642606,1.1805588605999946,1.3286720312714575,1.0901120901107788,0.07158834487199783,1.6963849067687988,,,,,,
1764808549.341734,,,,,,,0.272411048412323,-0.3415910005569458,0.05178791284561157,0.5807957649230957,0.26511287689208984,-1.8833307027816772
1764808549.350265,-3.0255615811243652,0.710466483169794,1.082166290909052,1.0432631969451904,0.11791505664587021,1.5760737657546997,,,,,,
1764808549.351764,,,,,,,0.23231762647628784,-0.3726007640361786,0.07346177101135254,0.4343370795249939,0.2996354401111603,-1.7964624166488647
1764808549.360317,-3.021507045036554,0.5025204828262329,0.9387643666684627,0.9887780547142029,0.22949405014514923,1.4334607124328613,,,,,,
1764808549.361794,,,,,,,0.2061132788658142,-0.3720059394836426,0.06943154335021973,0.3644469678401947,0.3220084011554718,-1.672492504119873
1764808549.370369,-2.852520597684383,0.4664250870943069,0.912575447922945,0.9314779043197632,0.3599320352077484,1.3074651956558228,,,,,,
1764808549.371825,,,,,,,0.19521450996398926,-0.3599294424057007,0.054793596267700195,0.33629921078681946,0.31501492857933044,-1.5461422204971313
1764808549.380422,-2.6705790994301437,0.43459144046008585,0.8707447234094142,0.8642528057098389,0.4803428649902344,1.210084080696106,,,,,,
1764808549.381855,,,,,,,0.18730229139328003,-0.3560829758644104,0.04569065570831299,0.3382253646850586,0.29516345262527466,-1.4082993268966675
1764808549.390474,-2.577220139992237,0.34099838000535965,0.7763152121305466,0.7981905341148376,0.6013327240943909,1.1253890991210938,,,,,,
1764808549.391885,,,,,,,0.17723357677459717,-0.356614351272583,0.03289979696273804,0.392100065946579,0.2746097147464752,-1.2488534450531006
1764808549.400526,-2.4791814983054996,0.20485563311278818,0.7195102058470249,0.71201491355896,0.7183022499084473,1.0160788297653198,,,,,,
1764808549.401915,,,,,,,0.1617187261581421,-0.3485264778137207,0.022013425827026367,0.49317508935928345,0.27988117933273315,-1.0926170349121094
1764808549.410578,-2.248124963748455,0.17494623253941535,0.6831096896886825,0.6133694052696228,0.8309893012046814,0.8943842053413391,,,,,,
1764808549.411945,,,,,,,0.1468813419342041,-0.3185916543006897,0.01642143726348877,0.6106875538825989,0.3043535053730011,-0.9301588535308838
1764808549.42063,-1.9677727756246923,0.2461070964336395,0.6257096401214599,0.5190519690513611,0.922844409942627,0.7725816369056702,,,,,,
1764808549.421975,,,,,,,0.1461573839187622,-0.293559730052948,0.014545559883117676,0.7623975276947021,0.3028869032859802,-0.7579501867294312
1764808549.430682,-1.7189388845756648,0.31890754422843454,0.5407423691928387,0.44153374433517456,0.9975908398628235,0.6635240912437439,,,,,,
1764808549.432005,,,,,,,0.14871132373809814,-0.2887534499168396,0.01646876335144043,0.908342719078064,0.27940019965171814,-0.6063971519470215
1764808549.440734,-1.522033041423559,0.37944238469004626,0.48554246001839635,0.36371031403541565,1.036716103553772,0.5667368173599243,,,,,,
1764808549.442035,,,,,,,0.1417139172554016,-0.275035560131073,0.022476494312286377,1.0068650245666504,0.2767716646194458,-0.46600815653800964
1764808549.450786,-1.3713459286108611,0.47753743273913857,0.47565936390757557,0.3010465204715729,1.0199652910232544,0.48438966274261475,,,,,,
1764808549.452065,,,,,,,0.13538670539855957,-0.2649650573730469,0.03218787908554077,1.063305377960205,0.2712586522102356,-0.3272571861743927
1764808549.460838,-1.2640695029795168,0.5547779088079929,0.4823123920559883,0.2542574405670166,0.9494962096214294,0.42182907462120056,,,,,,
1764808549.462095,,,,,,,0.13475000858306885,-0.2760022282600403,0.04498553276062012,1.0526386499404907,0.2512663006782532,-0.21240079402923584
1764808549.47089,-1.2680664636611938,0.5819511624157429,0.4915700497448444,0.21166563034057617,0.842667818069458,0.361191064119339,,,,,,
1764808549.472126,,,,,,,0.13251739740371704,-0.28922921419143677,0.059283673763275146,0.9910546541213989,0.22925955057144165,-0.11717040836811066
1764808549.480942,-1.3071458436399697,0.5772627123385667,0.4622165294885635,0.1705474853515625,0.7081385254859924,0.2912636399269104,,,,,,
1764808549.482156,,,,,,,0.12458819150924683,-0.28545302152633667,0.07041442394256592,0.9191964268684387,0.21096469461917877,-0.03794995695352554
1764808549.490994,-1.3787550358235836,0.5502969640016555,0.4490051657378673,0.13303765654563904,0.5574489235877991,0.21384012699127197,,,,,,
1764808549.492186,,,,,,,0.11791038513183594,-0.27413350343704224,0.07469868659973145,0.8432875275611877,0.18836137652397156,0.022696346044540405
1764808549.501046,-1.3773133125826715,0.5294833085536956,0.49173254683017725,0.10680871456861496,0.3951750695705414,0.14252705872058868,,,,,,
1764808549.502216,,,,,,,0.11256587505340576,-0.2679142355918884,0.07274682074785233,0.738570511341095,0.15016232430934906,0.05450780689716339
1764808549.511099,-1.3537006740659474,0.45276773314177987,0.5475707539081573,0.07769258320331573,0.22647030651569366,0.07836432009935379,,,,,,
1764808549.512246,,,,,,,0.10367971658706665,-0.2620429992675781,0.07300305366516113,0.600939929485321,0.11395824700593948,0.0765577107667923
1764808549.52115,-1.3744035626158118,0.417390130290389,0.5106090967357159,0.056192077696323395,0.07675351947546005,0.028743240982294083,,,,,,
1764808549.522276,,,,,,,0.09695905447006226,-0.25809746980667114,0.0737452507019043,0.41120198369026184,0.07576984912157059,0.10026723891496658
1764808549.531203,-1.4194476962178946,0.3703179979920387,0.43632104073166844,0.04665662348270416,-0.04057731851935387,-0.010240183211863041,,,,,,
1764808549.532306,,,,,,,0.08964228630065918,-0.2644115090370178,0.07550907135009766,0.20328739285469055,0.036709271371364594,0.12161673605442047
1764808549.541255,-1.453516262297332,0.2613093417406082,0.48283144749402995,0.04561799019575119,-0.12191291898488998,-0.05237405747175217,,,,,,
1764808549.542336,,,,,,,0.07500070333480835,-0.2758716344833374,0.07434052228927612,-0.0010608675656840205,0.013108868151903152,0.1263333261013031
1764808549.551307,-1.437591255673766,0.19312720139622688,0.5662018046200276,0.047583580017089844,-0.17956319451332092,-0.09421789646148682,,,,,,
1764808549.552366,,,,,,,0.05239301919937134,-0.2601470947265625,0.06830883026123047,-0.16206040978431702,0.017465531826019287,0.13389244675636292
1764808549.561359,-1.4058829889848827,0.17498890263736247,0.6436988857984542,0.04949333518743515,-0.21342527866363525,-0.12993541359901428,,,,,,
1764808549.562397,,,,,,,0.038931071758270264,-0.22472554445266724,0.05095714330673218,-0.28370213508605957,0.01850762777030468,0.13241678476333618
1764808549.571411,-1.29112468316555,0.2247615260660648,0.726412240320444,0.045109763741493225,-0.22961431741714478,-0.14126910269260406,,,,,,
1764808549.572427,,,,,,,0.03125357627868652,-0.19044309854507446,0.03244668245315552,-0.3641596734523773,0.021118324249982834,0.11465296894311905
1764808549.581463,-1.189912964400649,0.3107037795066833,0.6699427496016025,0.04569192975759506,-0.22790029644966125,-0.11793634295463562,,,,,,
1764808549.582457,,,,,,,0.03187978267669678,-0.13844847679138184,0.015204306691884995,-0.38820305466651917,0.03549486771225929,0.1053052768111229
1764808549.591515,-1.1600044406101107,0.27472645719647404,0.6212181739211082,0.07718665897846222,-0.20638331770896912,-0.06811791658401489,,,,,,
1764808549.592487,,,,,,,0.04543787240982056,-0.07867294549942017,-0.0004914402961730957,-0.30126816034317017,0.032624512910842896,0.08795265108346939
1764808549.601567,-1.2015858665376902,0.22542729649841783,0.684123250645399,0.10623268783092499,-0.15082710981369019,-0.02157730609178543,,,,,,
1764808549.602517,,,,,,,0.05237656831741333,-0.039121150970458984,-0.011874020099639893,-0.1733267605304718,0.02591387741267681,0.05162519961595535
1764808549.611619,-1.3115192364186048,0.26058044294416904,0.712383714967966,0.10514961928129196,-0.057175178080797195,0.013384266756474972,,,,,,
1764808549.612547,,,,,,,0.04638981819152832,-0.021994352340698242,-0.012837111949920654,-0.04122437909245491,0.05454712361097336,0.012869017198681831
1764808549.621671,-1.429169172026217,0.33461072479486464,0.5765583634614944,0.09628023207187653,0.07199292629957199,0.03386237844824791,,,,,,
1764808549.622577,,,,,,,0.03899282217025757,-0.02195984125137329,-0.010753987357020378,0.08822305500507355,0.08954078704118729,-0.017784368246793747
1764808549.631723,-1.4336305353492498,0.4255792819648981,0.4444225141227245,0.09808904677629471,0.22014936804771423,0.03362615406513214,,,,,,
1764808549.632607,,,,,,,0.04220300912857056,-0.025099217891693115,-0.007681731134653091,0.1875741332769394,0.11642486602067947,-0.04260875657200813
1764808549.641776,-1.2765107591405511,0.5428963323563337,0.4399100051343441,0.10908550769090652,0.3578081727027893,0.028720878064632416,,,,,,
1764808549.642637,,,,,,,0.05057370662689209,-0.02945166826248169,-0.002119302749633789,0.24598237872123718,0.13378335535526276,-0.049261000007390976
1764808549.651828,-0.998975382003188,0.5594190126121044,0.43174423433542247,0.11755877733230591,0.4585213363170624,0.011766459792852402,,,,,,
1764808549.652668,,,,,,,0.056672871112823486,-0.03803521394729614,0.006140831857919693,0.276816189289093,0.1435622125864029,-0.03869517520070076
1764808549.66188,-0.6616486762478947,0.49600131019055843,0.31534254522323607,0.12674161791801453,0.5270471572875977,-0.011614230461418629,,,,,,
1764808549.662698,,,,,,,0.05583846569061279,-0.047628045082092285,0.01420450396835804,0.30654412508010864,0.15980084240436554,-0.02505379728972912
1764808549.671932,-0.28031039480865,0.3928372883141041,0.26999182989001275,0.14267945289611816,0.5526847839355469,-0.031212972477078438,,,,,,
1764808549.672728,,,,,,,0.04843062162399292,-0.03971099853515625,0.012074651196599007,0.3576190173625946,0.1762850135564804,-0.009464984759688377
1764808549.681984,0.057114510624110694,0.3121066320419311,0.38505613291859625,0.15671910345554352,0.523913562297821,-0.03214747831225395,,,,,,
1764808549.682758,,,,,,,0.044122159481048584,-0.03484702110290527,0.002244655042886734,0.41145187616348267,0.19206583499908447,0.004035511054098606
1764808549.692036,0.2095394070148468,0.21400106259882448,0.45377135722637174,0.16183233261108398,0.4569825232028961,-0.014706900343298912,,,,,,
1764808549.692788,,,,,,,0.03893941640853882,-0.041296303272247314,0.0008801240473985672,0.43547144532203674,0.20067663490772247,0.010663585737347603
1764808549.702088,0.1444797826051712,0.171727855014801,0.41505262725353237,0.15682558715343475,0.37470149993896484,0.002896062098443508,,,,,,
1764808549.702818,,,,,,,0.03699898719787598,-0.050223469734191895,0.001061856746673584,0.43268582224845886,0.20634464919567108,0.016142573207616806
1764808549.71214,-0.018009703943133355,0.15080723206102847,0.3907306714236736,0.15536798536777496,0.29189354181289673,0.008328107185661793,,,,,,
1764808549.712848,,,,,,,0.03509843349456787,-0.05281519889831543,-0.0019826292991638184,0.42162731289863586,0.20594942569732666,0.022259589284658432
1764808549.722192,-0.17097820569127797,0.11671616188883781,0.33200025003552436,0.1523870974779129,0.21904543042182922,0.002954380586743355,,,,,,
1764808549.722878,,,,,,,0.03234708309173584,-0.048639893531799316,-0.00010728836059570312,0.407696932554245,0.19659081101417542,0.027307678014039993
1764808549.732244,-0.3045449646160006,0.057360302078723904,0.2686158653616905,0.1481376588344574,0.1761975884437561,-0.012798274867236614,,,,,,
1764808549.732908,,,,,,,0.026961684226989746,-0.04685729742050171,0.00452757254242897,0.37829965353012085,0.18620768189430237,0.031416669487953186
1764808549.742296,-0.3944242652446031,0.00758650960624218,0.22535423126220702,0.13594171404838562,0.1614399552345276,-0.030271807685494423,,,,,,
1764808549.742938,,,,,,,0.022135615348815918,-0.05706191062927246,0.008833765983581543,0.31961092352867126,0.1723983883857727,0.033893343061208725
1764808549.752348,-0.4607996484279632,-0.03755436236858368,0.18364976347684858,0.12022139877080917,0.16177813708782196,-0.05050284415483475,,,,,,
1764808549.752969,,,,,,,0.01916748285293579,-0.06625407934188843,0.00808381661772728,0.2454352229833603,0.15283694863319397,0.03489229455590248
1764808549.7624,-0.4245408788278699,-0.06545417668521404,0.17578326788544654,0.10557161271572113,0.17002007365226746,-0.061316344887018204,,,,,,
1764808549.762999,,,,,,,0.019037246704101562,-0.07706260681152344,0.005862351506948471,0.19056077301502228,0.13195616006851196,0.04524852707982063
1764808549.772453,-0.3739055010899901,-0.13347674255371092,0.22629297341704369,0.09212855994701385,0.16594646871089935,-0.06699160486459732,,,,,,
1764808549.773029,,,,,,,0.012263000011444092,-0.0716666579246521,0.0030440688133239746,0.15205305814743042,0.11469700932502747,0.05053410306572914
1764808549.782505,-0.3245402894183993,-0.18217559927105903,0.2515957752441056,0.079958975315094,0.13678964972496033,-0.0697394534945488,,,,,,
1764808549.783059,,,,,,,0.00465017557144165,-0.05692988634109497,0.0004689134657382965,0.12518543004989624,0.10274633765220642,0.05198086425662041
1764808549.792557,-0.3083691990792751,-0.1624386331439018,0.257214181381464,0.06684274971485138,0.09138239920139313,-0.07251225411891937,,,,,,
1764808549.793089,,,,,,,-0.002223491668701172,-0.055395305156707764,0.00025641918182373047,0.10477948933839798,0.09453634917736053,0.04682045802474022
1764808549.802609,-0.2879544798210263,-0.12506664160490036,0.24544074147939682,0.06485576182603836,0.046303339302539825,-0.06612226366996765,,,,,,
1764808549.803119,,,,,,,-0.004156351089477539,-0.056740641593933105,0.003420773893594742,0.07929594069719315,0.08269939571619034,0.039798304438591
1764808549.812661,-0.27835107743442056,-0.13793255291879175,0.21151509100198745,0.07055254280567169,0.012495786882936954,-0.06000593304634094,,,,,,
1764808549.813149,,,,,,,-0.00554424524307251,-0.05401116609573364,0.003520432859659195,0.0725134089589119,0.07864712923765182,0.03740678355097771
1764808549.822713,-0.2773173504725098,-0.15367957262694834,0.19636545266509056,0.0781920850276947,-0.002852276898920536,-0.053049758076667786,,,,,,
1764808549.823179,,,,,,,-0.00932091474533081,-0.047088623046875,0.006326980888843536,0.06945554167032242,0.08481927216053009,0.03162625804543495
1764808549.832765,-0.334455241972208,-0.13253800039887428,0.19264555535912511,0.07231321185827255,-0.0028464612551033497,-0.051284946501255035,,,,,,
1764808549.833209,,,,,,,-0.010111451148986816,-0.0372617244720459,0.008087757974863052,0.06079227849841118,0.08800441026687622,0.028161752969026566
1764808549.842817,-0.3896835004583001,-0.12460954548716545,0.12951602222919464,0.06025973707437515,0.01082807220518589,-0.05751727521419525,,,,,,
1764808549.84324,,,,,,,-0.003858208656311035,-0.0340154767036438,0.007415596395730972,0.053511057049036026,0.08786565810441971,0.03612640127539635
1764808549.852869,-0.40260581813454627,-0.12183715816438197,0.0949485667169094,0.04618415981531143,0.03449703007936478,-0.06597233563661575,,,,,,
1764808549.85327,,,,,,,0.0003326535224914551,-0.03891557455062866,0.00237220898270607,0.03535415977239609,0.08118724822998047,0.03242513909935951
1764808549.862921,-0.36977702298313375,-0.09459493097364902,0.07465514031734782,0.034642551094293594,0.050189174711704254,-0.07106536626815796,,,,,,
1764808549.8633,,,,,,,0.004270732402801514,-0.03567981719970703,0.0025119148194789886,0.02958556078374386,0.07168722152709961,0.041941747069358826
1764808549.872973,-0.3314753493785858,-0.054449383068084715,0.04478489814400673,0.02669970877468586,0.06329997628927231,-0.0716400146484375,,,,,,
1764808549.87333,,,,,,,0.005714833736419678,-0.03280818462371826,0.008578300476074219,0.031971484422683716,0.059151194989681244,0.054701484739780426
1764808549.883025,-0.31447102308571334,-0.019436521875858304,0.010928212116425856,0.024453066289424896,0.07018637657165527,-0.07439984381198883,,,,,,
1764808549.88336,,,,,,,8.58306884765625e-05,-0.035056352615356445,0.011664211750030518,0.035225387662649155,0.0595642514526844,0.061806730926036835
1764808549.893077,-0.27482611817866565,-0.025313304954767225,0.055153142856690096,0.025812579318881035,0.07420795410871506,-0.08753885328769684,,,,,,
1764808549.89339,,,,,,,-0.003649473190307617,-0.042241454124450684,0.01809173822402954,0.02864338830113411,0.06124497205018997,0.07049689441919327
1764808549.903129,-0.19088819029778242,-0.05764437971711158,0.09510404953956604,0.020702771842479706,0.07008831202983856,-0.10422249138355255,,,,,,
1764808549.90342,,,,,,,-0.0028967857360839844,-0.03713864088058472,0.015543874353170395,0.024178432300686836,0.06243167817592621,0.07798117399215698
1764808549.913182,-0.08347615558803081,-0.08154080361127852,0.14035656519532203,0.02204146236181259,0.04970600828528404,-0.1092563048005104,,,,,,
1764808549.91345,,,,,,,-0.003184020519256592,-0.022211432456970215,0.007031621411442757,0.05896437540650368,0.07654136419296265,0.08225235342979431
1764808549.923234,-0.03737812901884317,-0.08126958545446396,0.180834706056118,0.024533381685614586,0.01593445986509323,-0.09785264730453491,,,,,,
1764808549.92348,,,,,,,-0.005975961685180664,-0.011057376861572266,0.003913881257176399,0.07874692231416702,0.07798533141613007,0.07652908563613892
1764808549.933286,-0.10471066679656504,-0.07077449492514133,0.17074118206501007,0.026234600692987442,-0.009227034635841846,-0.08239493519067764,,,,,,
1764808549.93351,,,,,,,-0.00688779354095459,-0.008154213428497314,0.007453322410583496,0.09347580373287201,0.08580917119979858,0.07003390043973923
1764808549.943338,-0.21403905652165411,-0.03460720300078392,0.0943827495276928,0.03042535111308098,-0.018753428012132645,-0.075411856174469,,,,,,
1764808549.943541,,,,,,,-0.008636474609375,-0.013304591178894043,0.010992113500833511,0.09811833500862122,0.09718485921621323,0.07740193605422974
1764808549.95339,-0.3142103263229131,-0.0029366379737854,0.06769348004460335,0.03401641175150871,-0.011416462250053883,-0.08266530930995941,,,,,,
1764808549.953571,,,,,,,-0.006970584392547607,-0.017981231212615967,0.012735426425933838,0.1191442608833313,0.10539991408586502,0.08036763221025467
1764808549.963442,-0.36021745973825453,0.019290975925326345,0.06628945846557617,0.03145578131079674,0.00944541022181511,-0.09329025447368622,,,,,,
1764808549.963601,,,,,,,-0.004088163375854492,-0.014998853206634521,0.015747904777526855,0.12519186735153198,0.11295716464519501,0.08260229229927063
1764808549.973494,-0.36743835090249777,0.004162964898347854,0.04541851530584972,0.022677898406982422,0.039418309926986694,-0.1023307591676712,,,,,,
1764808549.973631,,,,,,,0.0015639066696166992,-0.016803622245788574,0.015270650386810303,0.12027647346258163,0.11038748174905777,0.09289434552192688
1764808549.983546,-0.3748725925564766,-0.03652560384273529,0.037052847153809854,0.012277988716959953,0.0735243484377861,-0.1125706136226654,,,,,,
1764808549.983661,,,,,,,0.006811559200286865,-0.02762073278427124,0.01444476842880249,0.10758332163095474,0.11115234345197678,0.10171452909708023
1764808549.993598,-0.3003156564831734,-0.06307575711607932,0.07454407659173011,0.0041387565433979034,0.10338949412107468,-0.12489217519760132,,,,,,
1764808549.993691,,,,,,,0.003468036651611328,-0.028573691844940186,0.01176387071609497,0.10130172222852707,0.12890151143074036,0.11520823836326599
1764808550.00365,-0.23604922827780245,-0.12263853767514228,0.11290624821186065,0.002489727456122637,0.12103879451751709,-0.13618265092372894,,,,,,
1764808550.003721,,,,,,,-0.005553543567657471,-0.022088706493377686,0.0016651153564453125,0.09796570241451263,0.1529160439968109,0.12633319199085236
1764808550.013702,-0.21006518445461989,-0.15011048196852206,0.19594810403585433,-0.002914212644100189,0.1158897653222084,-0.1403324007987976,,,,,,
1764808550.013751,,,,,,,-0.011426568031311035,-0.019536733627319336,-0.013344047591090202,0.11394386738538742,0.19533540308475494,0.1302962452173233
1764808550.023754,-0.1715326247036457,-0.18330314199626443,0.3759481128334999,-0.03722318634390831,0.09901970624923706,-0.14136357605457306,,,,,,
1764808550.023781,,,,,,,-0.01091158390045166,-0.017474353313446045,-0.022495154291391373,0.1254182606935501,0.22209244966506958,0.14484535157680511
1764808550.033806,-0.14282266304790972,-0.126846510758996,0.167746091902256,-0.061565548181533813,0.11228150129318237,-0.14136870205402374,,,,,,
1764808550.033812,,,,,,,-0.009442925453186035,-0.016260147094726562,-0.00724625401198864,0.2003692090511322,0.2280494123697281,0.1611311137676239
1764808550.043842,,,,,,,-0.0019571781158447266,-0.022634565830230713,-0.0028591714799404144,0.2507515847682953,0.24903857707977295,0.18915456533432007
1764808550.043859,-0.20064970585554837,0.01737199056148529,-0.02325110259479843,-0.05977350473403931,0.14678914844989777,-0.13820619881153107,,,,,,
1764808550.053872,,,,,,,0.0041925907135009766,-0.03549295663833618,0.012796346098184586,0.24119937419891357,0.2704927325248718,0.19007709622383118
1764808550.053911,-0.3474126309618354,0.0644797786951065,0.004761515313386917,-0.06351000815629959,0.178289532661438,-0.13825304806232452,,,,,,
1764808550.063902,,,,,,,0.003979623317718506,-0.04498833417892456,0.02259284257888794,0.20110437273979187,0.27838394045829773,0.22408205270767212
1764808550.063963,-0.5450765990048647,0.048721653071045874,-0.029825823076302185,-0.0662408098578453,0.2037043422460556,-0.16035249829292297,,,,,,
1764808550.073932,,,,,,,0.005248427391052246,-0.03970605134963989,0.02993100881576538,0.1668071150779724,0.2792137861251831,0.27223387360572815
1764808550.074015,-0.5529775813877582,0.0379933383077383,-0.07092005914198234,-0.06137651205062866,0.22757932543754578,-0.19872212409973145,,,,,,
1764808550.083961,,,,,,,-0.0008309483528137207,-0.05373197793960571,0.03708338737487793,0.1814029961824417,0.26191282272338867,0.28422608971595764
1764808550.084067,-0.39531098495125766,0.07762859860360621,-0.04755202476978302,-0.05533140152692795,0.2500191330909729,-0.22264637053012848,,,,,,
1764808550.093992,,,,,,,-0.0023121237754821777,-0.05766570568084717,0.03317028284072876,0.19487594068050385,0.2492561638355255,0.28500720858573914
1764808550.094119,-0.24750877992510795,0.018866613033413887,0.04526422435985878,-0.05311325192451477,0.24212656915187836,-0.2329605221748352,,,,,,
1764808550.104022,,,,,,,-9.41157341003418e-05,-0.03441345691680908,0.03327298164367676,0.14823953807353973,0.23070617020130157,0.299299955368042
1764808550.104171,-0.16452888342142105,-0.0672732088059187,0.0806862143422477,-0.04698745161294937,0.21974004805088043,-0.23506228625774384,,,,,,
1764808550.114052,,,,,,,0.0010755658149719238,-0.022453367710113525,0.029710829257965088,0.11304239928722382,0.21565932035446167,0.31860148906707764
1764808550.114223,-0.1471612767741084,-0.0855371797710657,0.12177227623462676,-0.03799552470445633,0.20505495369434357,-0.24491360783576965,,,,,,
1764808550.124083,,,,,,,-0.004632055759429932,-0.030126631259918213,0.020780503749847412,0.09315409511327744,0.20544928312301636,0.3355036675930023
1764808550.124275,-0.10994622936248778,-0.08979308364987373,0.07673133923662825,-0.025462955236434937,0.22192688286304474,-0.26349449157714844,,,,,,
1764808550.134113,,,,,,,-0.015977323055267334,-0.027946054935455322,0.00845956802368164,0.09642232209444046,0.2167980819940567,0.3293035626411438
1764808550.134327,-0.040406829190254206,-0.13861585900783538,0.0987853501345031,-0.01660766266286373,0.24604596197605133,-0.27231740951538086,,,,,,
1764808550.144143,,,,,,,-0.025379657745361328,-0.003911435604095459,-0.005045474506914616,0.14201129972934723,0.2385403960943222,0.3272477090358734
1764808550.144379,0.012625965078175067,-0.15154723677337167,0.1889326540495269,-0.013964740559458733,0.24530959129333496,-0.2666829526424408,,,,,,
1764808550.154173,,,,,,,-0.02166163921356201,0.026466012001037598,-0.010558784008026123,0.2191857099533081,0.2340625524520874,0.3342355787754059
1764808550.154431,-0.016736907528340814,-0.15058920539617537,0.16657118463767692,-0.01302703469991684,0.2347189486026764,-0.2560906708240509,,,,,,
1764808550.164203,,,,,,,-0.015218853950500488,0.035443902015686035,-0.01627814769744873,0.3036051392555237,0.2304832637310028,0.3239649832248688
1764808550.164483,-0.06304886910915375,-0.10996259597539901,0.11375968670342117,-0.01615039072930813,0.24121811985969543,-0.24438795447349548,,,,,,
1764808550.174233,,,,,,,-0.01426786184310913,0.03658241033554077,-0.0182531476020813,0.3745536208152771,0.2167235165834427,0.3158324658870697
1764808550.174535,-0.09095511316657066,-0.07873334497511386,0.06801025437619537,-0.01985546573996544,0.2631415128707886,-0.240768700838089,,,,,,
1764808550.184263,,,,,,,-0.005735814571380615,0.02832317352294922,-0.021666109561920166,0.40051454305648804,0.1995794177055359,0.3106016516685486
1764808550.184588,-0.02648381003886461,-0.0786836606144905,0.08091302710175513,-0.031222369521856308,0.27652764320373535,-0.23823045194149017,,,,,,
1764808550.194293,,,,,,,-0.0023758411407470703,0.020216941833496094,-0.01786094903945923,0.37627285718917847,0.1842542588710785,0.30629611015319824
1764808550.19464,0.025198738664388654,-0.10706745905578136,0.07126489052427933,-0.041789423674345016,0.27155330777168274,-0.23264938592910767,,,,,,
1764808550.204323,,,,,,,-0.0033628344535827637,0.01212608814239502,-0.011040805839002132,0.3402044475078583,0.17087720334529877,0.3136052191257477
1764808550.204692,0.08135492565035819,-0.09277589885294436,-0.0006709945967420935,-0.0511443093419075,0.2516626715660095,-0.23224273324012756,,,,,,
1764808550.214354,,,,,,,-0.005021631717681885,0.0015361309051513672,-0.0015383949503302574,0.29349154233932495,0.15311284363269806,0.30884402990341187
1764808550.214744,0.16744214051961898,-0.005381693038344383,-0.0413093309879303,-0.06225414201617241,0.22231657803058624,-0.232187420129776,,,,,,
1764808550.224384,,,,,,,-0.0023021697998046875,-0.010577738285064697,0.00903987791389227,0.22805672883987427,0.13408535718917847,0.3020761013031006
1764808550.224796,0.23315730622857808,0.05994330430924892,-0.04710201597996056,-0.06755223125219345,0.18930590152740479,-0.23384737968444824,,,,,,
1764808550.234414,,,,,,,0.003364086151123047,-0.016064167022705078,0.020688235759735107,0.14573895931243896,0.10818345099687576,0.3008579909801483
1764808550.234848,0.22395634716302154,0.10037468341886997,-0.08100070538520812,-0.06742921471595764,0.15109550952911377,-0.23843085765838623,,,,,,
1764808550.244444,,,,,,,0.008246839046478271,-0.016815125942230225,0.021685421466827393,0.054537367075681686,0.08342830091714859,0.28992345929145813
1764808550.2449,0.20155746835023164,0.12020108139514922,-0.06702478700280189,-0.06872803717851639,0.10352557897567749,-0.2474627047777176,,,,,,
1764808550.254474,,,,,,,0.008225202560424805,-0.014027684926986694,0.018933117389678955,-0.028308510780334473,0.06377683579921722,0.2766755521297455
1764808550.254952,0.20723726755231617,0.1212351006180048,-0.02960954084396362,-0.07238906621932983,0.051480650901794434,-0.2538367807865143,,,,,,
1764808550.264504,,,,,,,0.005099058151245117,0.0008167028427124023,0.016707539558410645,-0.0808921754360199,0.05610879883170128,0.2611590623855591
1764808550.265004,0.24068828625530003,0.07956979579925537,-0.049773207950592036,-0.0665104016661644,-0.004237739834934473,-0.25288018584251404,,,,,,
1764808550.274534,,,,,,,0.0027771592140197754,0.02033981680870056,0.014816166833043098,-0.1017250195145607,0.05515671893954277,0.24725228548049927
1764808550.275056,0.21736352476924656,0.085986092582345,-0.07058920148611068,-0.06182323396205902,-0.05041700601577759,-0.2461540251970291,,,,,,
1764808550.284564,,,,,,,-0.000970304012298584,0.02975139021873474,0.016084253787994385,-0.10992449522018433,0.05582277476787567,0.22479498386383057
1764808550.285108,0.17060732655227184,0.13068681957423686,-0.10628240962531417,-0.057687077671289444,-0.0790337324142456,-0.2339724600315094,,,,,,
1764808550.294594,,,,,,,-0.0019907355308532715,0.029139965772628784,0.020504295825958252,-0.1311725229024887,0.050738003104925156,0.2031586617231369
1764808550.29516,0.10440934576243162,0.15551847849190234,-0.13964929370880125,-0.05070912465453148,-0.08823885023593903,-0.22455154359340668,,,,,,
1764808550.304624,,,,,,,0.0008337497711181641,0.029341906309127808,0.023523449897766113,-0.15538902580738068,0.044847890734672546,0.1824527233839035
1764808550.305212,0.015108721804618835,0.14136661902070044,-0.14717329600546508,-0.04128073528409004,-0.0866827666759491,-0.21683290600776672,,,,,,
1764808550.314655,,,,,,,0.0015278458595275879,0.03554019331932068,0.023449599742889404,-0.18110451102256775,0.04190056771039963,0.17149648070335388
1764808550.315265,0.001534077699482441,0.11477379564940929,-0.142289031095244,-0.03095809742808342,-0.08260627835988998,-0.20945420861244202,,,,,,
1764808550.324685,,,,,,,-0.0038391947746276855,0.038695842027664185,0.0256614089012146,-0.19052433967590332,0.04557200148701668,0.1628768891096115
1764808550.325317,0.020270926873385903,0.07978782246410847,-0.15438045090530067,-0.020803997293114662,-0.07768422365188599,-0.19989478588104248,,,,,,
1764808550.334715,,,,,,,-0.009730339050292969,0.03506764769554138,0.020199239253997803,-0.1876281499862671,0.05107196420431137,0.13779817521572113
1764808550.335369,-0.012653145346045494,0.046426235610246655,-0.13640866781976074,-0.013329259119927883,-0.07028861343860626,-0.19147108495235443,,,,,,
1764808550.344745,,,,,,,-0.010978400707244873,0.035827428102493286,0.01887953281402588,-0.17710034549236298,0.0510658398270607,0.11889751255512238
1764808550.345421,0.0028705870002508163,0.04949205292165279,-0.1179670387327671,-0.008149145171046257,-0.06499291956424713,-0.1811489462852478,,,,,,
1764808550.354775,,,,,,,-0.0069422125816345215,0.03865125775337219,0.021355152130126953,-0.1681065857410431,0.055791083723306656,0.11924958229064941
1764808550.355473,0.0018470891714096069,0.05286766683459282,-0.14900051143262535,-0.00539066968485713,-0.05286073684692383,-0.17052289843559265,,,,,,
1764808550.364805,,,,,,,-0.006369590759277344,0.032114624977111816,0.02312445640563965,-0.17332006990909576,0.04798642545938492,0.11082347482442856
1764808550.365525,-0.016816402505338193,0.026547230663895607,-0.21853052272200582,-0.0016007251106202602,-0.034789856523275375,-0.168009951710701,,,,,,
1764808550.374835,,,,,,,-0.010353684425354004,0.015939444303512573,0.022406578063964844,-0.21140965819358826,0.05195000767707825,0.10182199627161026
1764808550.375577,0.017666589593887328,-0.012531564792990684,-0.17580314162969587,0.0034260430838912725,-0.027145029976963997,-0.173613041639328,,,,,,
1764808550.384865,,,,,,,-0.01066964864730835,0.00615808367729187,0.019520878791809082,-0.23603159189224243,0.0577559657394886,0.10102131217718124
1764808550.385629,0.07662380547523498,-0.05181669647693634,-0.10587912605404853,0.0009836582466959953,-0.04356501251459122,-0.17779900133609772,,,,,,
1764808550.394895,,,,,,,-0.01017063856124878,0.006099402904510498,0.018085241317749023,-0.2507420778274536,0.05480731278657913,0.09900449961423874
1764808550.395681,0.12302695247083902,-0.06975684231519699,-0.058853134452365334,-0.004038694780319929,-0.06782090663909912,-0.1811017096042633,,,,,,
1764808550.404925,,,,,,,-0.00872957706451416,0.01400601863861084,0.01697981357574463,-0.25937536358833313,0.05341234803199768,0.1021638810634613
1764808550.405733,0.13194646424651146,-0.057196051427721974,-0.10497779330015182,-0.005518879275768995,-0.09764404594898224,-0.1818695068359375,,,,,,
1764808550.414956,,,,,,,-0.008097410202026367,0.01321333646774292,0.010131239891052246,-0.2555481493473053,0.05509147420525551,0.11206657439470291
1764808550.415785,0.09737579386383295,-0.03730827865302563,-0.12069679249022155,-0.004652096424251795,-0.12219393253326416,-0.19084343314170837,,,,,,
1764808550.424986,,,,,,,-0.00885695219039917,0.0030532777309417725,0.008143901824951172,-0.2670269310474396,0.05462781712412834,0.12066991627216339
1764808550.425837,0.11673866598159074,-0.03561491873860359,-0.14355389993190765,-0.009283866733312607,-0.13557977974414825,-0.2041051983833313,,,,,,
1764808550.435016,,,,,,,-0.010995090007781982,0.0005701780319213867,0.003863094374537468,-0.27774643898010254,0.058367159217596054,0.12414427101612091
1764808550.435889,0.20067513255774974,-0.08129881154894829,-0.11095858474280684,-0.016151756048202515,-0.14587745070457458,-0.2208789587020874,,,,,,
1764808550.445046,,,,,,,-0.010194182395935059,0.011250555515289307,0.004301190376281738,-0.26514220237731934,0.04816459119319916,0.13640446960926056
1764808550.445941,0.29879677635282276,-0.10499357539117336,-0.10850479838252067,-0.016716614365577698,-0.15669813752174377,-0.22058601677417755,,,,,,
1764808550.455076,,,,,,,-0.01086205244064331,0.022243887186050415,0.003155229613184929,-0.22903692722320557,0.044663332402706146,0.13754351437091827
1764808550.455994,0.32663813848048445,-0.11155132647156715,-0.10604165967199951,-0.013002155348658562,-0.16604085266590118,-0.20540893077850342,,,,,,
1764808550.465106,,,,,,,-0.018070697784423828,0.02015337347984314,0.003042459487915039,-0.20720218122005463,0.045931797474622726,0.12690144777297974
1764808550.466046,0.30976006891578434,-0.11247487105727196,-0.0707891079723835,-0.01455371268093586,-0.17205853760242462,-0.18652817606925964,,,,,,
1764808550.475136,,,,,,,-0.021192491054534912,0.029523640871047974,0.0027036648243665695,-0.21179214119911194,0.05280940979719162,0.13182935118675232
1764808550.476098,0.26106793420016766,-0.10556056162416934,-0.039237821943499146,-0.020782846957445145,-0.1713131070137024,-0.1806415319442749,,,,,,
1764808550.485166,,,,,,,-0.01632791757583618,0.0365159809589386,-0.0019675511866807938,-0.20904985070228577,0.045023124665021896,0.12661881744861603
1764808550.48615,0.2682482010930776,-0.14376257424652575,-0.03712064712643623,-0.024532044306397438,-0.1605808436870575,-0.17589683830738068,,,,,,
1764808550.495196,,,,,,,-0.014139771461486816,0.0399516224861145,-0.014397978782653809,-0.21535062789916992,0.029597828164696693,0.11032400280237198
1764808550.496202,0.34244361037760973,-0.20889234128296374,-0.011939480651356279,-0.029513824731111526,-0.15513798594474792,-0.1642855405807495,,,,,,
1764808550.505227,,,,,,,-0.019561350345611572,0.047044336795806885,-0.021580573171377182,-0.21687622368335724,0.027512039989233017,0.0866054892539978
1764808550.506254,0.4450584739387035,-0.17494155636429787,0.03429627388808876,-0.03327047824859619,-0.1588618904352188,-0.13447891175746918,,,,,,
1764808550.515257,,,,,,,-0.02643662691116333,0.05760204792022705,-0.025817394256591797,-0.1934337615966797,0.023904256522655487,0.06554014980792999
1764808550.516306,0.4218614304855466,-0.15578911212682722,0.005822970532439649,-0.020519793033599854,-0.15610206127166748,-0.09386862814426422,,,,,,
1764808550.525287,,,,,,,-0.02832162380218506,0.06510517001152039,-0.024685855954885483,-0.17724356055259705,0.022446176037192345,0.024581067264080048
1764808550.526358,0.31181729370653627,-0.1083686047822237,0.028345841051079332,-0.003542169462889433,-0.1501321643590927,-0.06720957159996033,,,,,,
1764808550.535317,,,,,,,-0.027143657207489014,0.06798666715621948,-0.01583397015929222,-0.18988904356956482,0.023541001603007317,-0.010388368740677834
1764808550.53641,0.23606822523921728,-0.06704466074705123,0.08927519725561141,0.006249269004911184,-0.14716441929340363,-0.047031596302986145,,,,,,
1764808550.545347,,,,,,,-0.0247647762298584,0.0654166042804718,-0.008428215980529785,-0.2201469987630844,0.026763958856463432,-0.03777165710926056
1764808550.546462,0.17754589364379644,-0.055230888834595676,0.08065704304669052,0.016684332862496376,-0.14512310922145844,-0.03569185733795166,,,,,,
1764808550.555377,,,,,,,-0.017927944660186768,0.05615198612213135,-0.008151650428771973,-0.2641528248786926,0.037928465753793716,-0.07332591712474823
1764808550.556514,0.23070319107472895,-0.02457505380809307,0.029936909634806216,0.024912718683481216,-0.13817130029201508,-0.02146373689174652,,,,,,
1764808550.565407,,,,,,,-0.014923632144927979,0.0510709285736084,-0.014422304928302765,-0.32054951786994934,0.05390583351254463,-0.11218423396348953
1764808550.566566,0.3099617289677262,-0.017162731724977492,0.018105017543770374,0.04232260212302208,-0.12269168347120285,-0.0017022824613377452,,,,,,
1764808550.575437,,,,,,,-0.0131148099899292,0.05103844404220581,-0.014034628868103027,-0.35707929730415344,0.06071127578616142,-0.1561809927225113
1764808550.576618,0.3830944774568081,0.013496610432863234,0.06873392900824546,0.058828383684158325,-0.10842165350914001,0.02467215247452259,,,,,,
1764808550.585467,,,,,,,-0.013768434524536133,0.06476181745529175,-0.006941799074411392,-0.3812081217765808,0.06759447604417801,-0.19842305779457092
1764808550.586671,0.40823944010734553,0.004504910203814506,-0.033469723403453826,0.08468741178512573,-0.08247021585702896,0.048053108155727386,,,,,,
1764808550.595498,,,,,,,-0.01615774631500244,0.06880959868431091,0.001220703125,-0.4026945233345032,0.06662668287754059,-0.2428610920906067
1764808550.596723,0.4312020902827382,-0.0388473247885704,-0.07926354286167771,0.11553499102592468,-0.0513368658721447,0.06595607101917267,,,,,,
1764808550.605528,,,,,,,-0.024157047271728516,0.06968265771865845,-0.0007380284368991852,-0.44802889227867126,0.06995963305234909,-0.2631589472293854
1764808550.606775,0.49368397315889595,-0.04144727815389633,-0.08086977248191833,0.141714945435524,-0.044340476393699646,0.08122210204601288,,,,,,
1764808550.615558,,,,,,,-0.03171563148498535,0.07478633522987366,-0.004705905914306641,-0.4400157034397125,0.08612288534641266,-0.27815335988998413
1764808550.616827,0.6263736569881438,-0.024158289700746533,-0.12575988456606865,0.16546018421649933,-0.05101825296878815,0.108711376786232,,,,,,
1764808550.625588,,,,,,,-0.03979223966598511,0.08948642015457153,-0.010501746088266373,-0.38673073053359985,0.09374325722455978,-0.3267520070075989
1764808550.626879,0.8403504619285463,0.0474918190151453,-0.17385549642695114,0.20066025853157043,-0.06295640021562576,0.1565830260515213,,,,,,
1764808550.635618,,,,,,,-0.04199361801147461,0.13494983315467834,-0.013052228838205338,-0.32200977206230164,0.10750647634267807,-0.3865905702114105
1764808550.636931,0.99922351154536,0.08833587057888508,-0.2131587665557861,0.25284814834594727,-0.09220690280199051,0.21762189269065857,,,,,,
1764808550.645648,,,,,,,-0.0456850528717041,0.1724345088005066,-0.0006995238363742828,-0.2557375133037567,0.1297806203365326,-0.45282551646232605
1764808550.646983,1.0583061073720454,0.009777882170677184,-0.3436146999835968,0.3217582106590271,-0.08786328881978989,0.26764965057373047,,,,,,
1764808550.655678,,,,,,,-0.05121642351150513,0.17951831221580505,0.012907028198242188,-0.23853109776973724,0.14313317835330963,-0.5117929577827454
1764808550.657035,1.10261052852273,-0.0033358664244413374,-0.4963572840213775,0.38965311646461487,-0.04448114335536957,0.3108021020889282,,,,,,
1764808550.665708,,,,,,,-0.06628817319869995,0.17373698949813843,0.02219606190919876,-0.2739376127719879,0.17097920179367065,-0.5643654465675354
1764808550.667087,1.113673189806938,-0.0849579185783863,-0.6740238814353943,0.44719043374061584,0.05868252366781235,0.321346640586853,,,,,,
1764808550.675738,,,,,,,-0.0818716287612915,0.1832355260848999,0.02031683549284935,-0.31629467010498047,0.2132725864648819,-0.5961084365844727
1764808550.677139,1.4367270400598644,-0.2517114923119545,-0.7873018855690955,0.5109028816223145,0.1792081892490387,0.3452368378639221,,,,,,
1764808550.685768,,,,,,,-0.09593707323074341,0.22308999300003052,0.00447690486907959,-0.3018892705440521,0.2465389370918274,-0.6459698677062988
1764808550.687191,1.8353101785495876,-0.36875615550279617,-0.7541425432890653,0.5608243942260742,0.2640591859817505,0.4158255159854889,,,,,,
1764808550.695799,,,,,,,-0.10920912027359009,0.2838069796562195,-0.010127663612365723,-0.21132449805736542,0.2817131578922272,-0.7257967591285706
1764808550.697243,2.090711465290189,-0.4401771316379308,-0.788127230477333,0.5890878438949585,0.3226238787174225,0.5101414322853088,,,,,,
1764808550.705829,,,,,,,-0.11578649282455444,0.3490943908691406,-0.020004861056804657,-0.05135627090930939,0.3209119737148285,-0.8078932762145996
1764808550.707295,2.2775629474177954,-0.42997839370667934,-0.9247866947203874,0.6174137592315674,0.3933292031288147,0.6012333035469055,,,,,,
1764808550.715859,,,,,,,-0.11517554521560669,0.4010887145996094,-0.024717576801776886,0.13588471710681915,0.35653653740882874,-0.9080166816711426
1764808550.717347,2.4889953285723925,-0.1517208397746086,-1.033034303471446,0.6542821526527405,0.4783998131752014,0.698693573474884,,,,,,
1764808550.725889,,,,,,,-0.11190825700759888,0.44767874479293823,-0.011595137417316437,0.23104774951934814,0.3999907970428467,-1.032360315322876
1764808550.7274,2.707511530508101,0.19736264700889586,-1.1946101823061703,0.721350908279419,0.5348165035247803,0.8276347517967224,,,,,,
1764808550.735919,,,,,,,-0.09954798221588135,0.4794604182243347,0.01937282085418701,0.2658784091472626,0.4380077123641968,-1.1712627410888672
1764808550.737452,2.79921483169347,0.46351299903988835,-1.3913099814921617,0.8078168034553528,0.5926164388656616,0.9639220237731934,,,,,,
1764808550.745949,,,,,,,-0.07729530334472656,0.47781670093536377,0.048093922436237335,0.20632590353488922,0.46894776821136475,-1.3000744581222534
1764808550.747504,2.8784175477460026,0.6522691457450389,-1.4397674306690693,0.8919880986213684,0.6512821316719055,1.0768792629241943,,,,,,
1764808550.755979,,,,,,,-0.05357319116592407,0.46082037687301636,0.07764602452516556,0.04440171644091606,0.5033938884735107,-1.4586704969406128
1764808550.757556,3.0985330015718935,0.7355699447661638,-1.4151000224024057,0.9707899689674377,0.6800524592399597,1.174116849899292,,,,,,
1764808550.766009,,,,,,,-0.0375402569770813,0.4630524516105652,0.0970374271273613,-0.12652207911014557,0.5252336859703064,-1.641345500946045
1764808550.767608,3.4627199494630094,0.784177031546831,-1.386066820141673,1.05572509765625,0.6454752683639526,1.2760794162750244,,,,,,
1764808550.776039,,,,,,,-0.023801326751708984,0.49234312772750854,0.09754907339811325,-0.21364153921604156,0.5364594459533691,-1.8253799676895142
1764808550.77766,3.8596477219611405,0.7642056721419096,-1.445521464151144,1.1473122835159302,0.559037446975708,1.4056196212768555,,,,,,
1764808550.78607,,,,,,,-0.018235504627227783,0.5367962718009949,0.092832550406456,-0.2514069080352783,0.5566717386245728,-1.9981017112731934
1764808550.787712,4.109860792408884,0.7596171753078699,-1.4419652329742907,1.2342358827590942,0.4638816714286804,1.565865159034729,,,,,,
1764808550.7961,,,,,,,-0.017753541469573975,0.5693495273590088,0.08103501796722412,-0.21663430333137512,0.5869649648666382,-2.150306224822998
1764808550.797764,4.176348111534119,0.6825988175570964,-1.39634856018126,1.312058448791504,0.38417503237724304,1.7364336252212524,,,,,,
1764808550.80613,,,,,,,-0.019679784774780273,0.5749937891960144,0.0619661808013916,-0.13735893368721008,0.6466346979141235,-2.2880733013153076
1764808550.807816,4.096300176829099,0.6534656620532274,-1.3521727338463068,1.369071364402771,0.3342844545841217,1.8981168270111084,,,,,,
1764808550.81616,,,,,,,-0.01624363660812378,0.5839695930480957,0.05263257026672363,-0.07584764063358307,0.7221621870994568,-2.4195945262908936
1764808550.817868,3.9491123043090104,0.707249274688959,-1.3715654165804385,1.40263831615448,0.31451737880706787,2.04561448097229,,,,,,
1764808550.82619,,,,,,,0.0001925826072692871,0.5961030125617981,0.05910050868988037,-0.015589520335197449,0.7795213460922241,-2.5625123977661133
1764808550.82792,3.781183841577172,0.9418734385997056,-1.5074169254414735,1.4427580833435059,0.3379676043987274,2.1800003051757812,,,,,,
1764808550.83622,,,,,,,0.030052781105041504,0.6011464595794678,0.08085116744041443,-0.014048082754015923,0.8133906126022339,-2.7196338176727295
1764808550.837972,3.6851685224115847,1.245881519860029,-1.590930052039027,1.5189615488052368,0.3819561302661896,2.3101775646209717,,,,,,
1764808550.84625,,,,,,,0.05638420581817627,0.5918586254119873,0.11574220657348633,-0.07891469448804855,0.8527218103408813,-2.875509023666382
1764808550.848024,3.6618303169220683,1.4502040690094231,-1.5111036511301994,1.6168410778045654,0.39766639471054077,2.446659803390503,,,,,,
1764808550.85628,,,,,,,0.075655996799469,0.5725831985473633,0.1393994241952896,-0.18061921000480652,0.8927621841430664,-3.024885892868042
1764808550.858076,3.666297817724943,1.4872820460379124,-1.3765442279063165,1.7007849216461182,0.37833234667778015,2.575671434402466,,,,,,
1764808550.86631,,,,,,,0.09763908386230469,0.5689116716384888,0.13863037526607513,-0.24284766614437103,0.9570159912109375,-3.1701135635375977
1764808550.868129,3.784869836613536,1.5103922879904508,-1.3514292220026254,1.762656807899475,0.36500856280326843,2.679471254348755,,,,,,
1764808550.87634,,,,,,,0.12015610933303833,0.5911659598350525,0.14552225172519684,-0.25347259640693665,1.0507770776748657,-3.30625057220459
1764808550.878181,4.051742073178291,1.7247902409523725,-1.412246824928373,1.8167140483856201,0.36655566096305847,2.782620906829834,,,,,,
1764808550.886371,,,,,,,0.14865607023239136,0.6295807361602783,0.15755797922611237,-0.2320108413696289,1.169416904449463,-3.4361398220062256
1764808550.888233,4.252897098207473,2.1202701527297494,-1.4492062901437281,1.8851360082626343,0.3488174080848694,2.9092535972595215,,,,,,
1764808550.896401,,,,,,,0.1844525933265686,0.6366019248962402,0.17387033998966217,-0.24067357182502747,1.2730859518051147,-3.5654196739196777
1764808550.898285,4.21789885006249,2.3831705630540845,-1.4109369113735855,1.9644774198532104,0.2810366749763489,3.061314105987549,,,,,,
1764808550.906431,,,,,,,0.2230263352394104,0.595069169998169,0.19384612143039703,-0.3021627366542816,1.3323557376861572,-3.691545248031616
1764808550.908337,3.9386271506518122,2.3587539146780965,-1.3749981675080953,2.0430078506469727,0.2166273295879364,3.205723762512207,,,,,,
1764808550.916461,,,,,,,0.25346457958221436,0.5537770986557007,0.21115994453430176,-0.4260393977165222,1.4281506538391113,-3.796959400177002
1764808550.918389,3.5781922487705944,2.2928578394442796,-1.3343430626451969,2.1066956520080566,0.18055449426174164,3.332110643386841,,,,,,
1764808550.926491,,,,,,,0.2670871913433075,0.530781626701355,0.2045130580663681,-0.6219102144241333,1.5769939422607422,-3.8852627277374268
1764808550.928441,3.2345892392247912,2.4057751935720444,-1.1661718771986662,2.149094343185425,0.1559402197599411,3.4515254497528076,,,,,,
1764808550.936521,,,,,,,0.2925409972667694,0.5104390978813171,0.19335313141345978,-0.7351549863815308,1.6847741603851318,-3.9673001766204834
1764808550.938493,2.9037101021736857,2.5712211918383834,-1.0420827023237944,2.178359270095825,0.14099974930286407,3.5934946537017822,,,,,,
1764808550.946551,,,,,,,0.34692421555519104,0.507093071937561,0.19164085388183594,-0.6494039297103882,1.6228349208831787,-3.980813503265381
1764808550.948545,2.4406577063828707,2.5829613139927385,-1.1261813737243414,2.1679110527038574,0.17837055027484894,3.7244622707366943,,,,,,
1764808550.956581,,,,,,,0.400748610496521,0.5140029788017273,0.18071062862873077,-0.4142247140407562,1.5644088983535767,-3.9538393020629883
1764808550.958597,2.003857942223549,2.3534183988690374,-1.2919652256429195,2.154040813446045,0.27642861008644104,3.791541337966919,,,,,,
1764808550.966611,,,,,,,0.401105672121048,0.47368550300598145,0.1770891696214676,-0.07248026132583618,1.629446029663086,-3.9116861820220947
1764808550.968649,1.749595596385002,2.0572426186695694,-1.2077286070764064,2.139101505279541,0.38525816798210144,3.8135313987731934,,,,,,
1764808550.976642,,,,,,,0.36198288202285767,0.41019636392593384,0.19498276710510254,0.3400859832763672,1.7266331911087036,-3.874955177307129
1764808550.978701,1.6436925049334763,2.0516683256685733,-1.1668927388191221,2.1242637634277344,0.5007140040397644,3.8051295280456543,,,,,,
1764808550.986672,,,,,,,0.3404773771762848,0.3914177417755127,0.2287004292011261,0.7289751172065735,1.8222193717956543,-3.843928337097168
1764808550.988753,1.6198755760163068,2.30284410366863,-1.1465841102838517,2.116868019104004,0.6164342164993286,3.815864324569702,,,,,,
1764808550.996702,,,,,,,0.3571077585220337,0.3913685083389282,0.23544707894325256,1.1159638166427612,1.9145219326019287,-3.793948173522949
1764808550.998805,1.3465946414530277,2.4886308791741727,-1.052495375266671,2.1185872554779053,0.7085035443305969,3.847032308578491,,,,,,
1764808551.006731,,,,,,,0.38024044036865234,0.3213884234428406,0.24906504154205322,1.3546063899993896,1.9631317853927612,-3.801598310470581
1764808551.008856,0.9534288518369197,2.5820669955015183,-0.9723273213133216,2.1372790336608887,0.7728955745697021,3.874114990234375,,,,,,
1764808551.016761,,,,,,,0.39968985319137573,0.2701660394668579,0.31446269154548645,1.4343843460083008,2.026193380355835,-3.805243968963623
1764808551.018909,0.6951432418316602,2.7391531617015596,-1.0332061529070138,2.1802265644073486,0.8320827484130859,3.8972394466400146,,,,,,
1764808551.026791,,,,,,,0.43176522850990295,0.26399731636047363,0.33559754490852356,1.5113937854766846,2.088939905166626,-3.776196241378784
1764808551.028961,0.48835342578589913,2.923661587834358,-1.1220260076105595,2.228788375854492,0.9249706268310547,3.9137330055236816,,,,,,
1764808551.036821,,,,,,,0.4634374976158142,0.2303091287612915,0.3262518644332886,1.5325936079025269,2.1062238216400146,-3.7815003395080566
1764808551.039013,0.28541970064640043,2.9238346063137053,-1.0301523182943462,2.242908239364624,0.9959099888801575,3.9069602489471436,,,,,,
1764808551.046851,,,,,,,0.4793446362018585,0.16654998064041138,0.33480310440063477,1.5105360746383667,2.1173911094665527,-3.768697738647461
1764808551.049066,0.21692133395969868,2.751094359385967,-1.1150605525121091,2.231645345687866,1.02884042263031,3.873258352279663,,,,,,
1764808551.056881,,,,,,,0.4842252731323242,0.1026068925857544,0.3422964811325073,1.4497355222702026,2.1474359035491943,-3.740711212158203
1764808551.059117,0.314411986374855,2.7193843391314148,-1.2787275584071873,2.238223075866699,1.026436686515808,3.8163604736328125,,,,,,
1764808551.066911,,,,,,,0.4875376224517822,0.07383102178573608,0.3658255338668823,1.3562579154968262,2.190335273742676,-3.751905679702759
1764808551.06917,0.47532151025533675,3.1153333297252654,-1.3511135801821947,2.2718865871429443,0.9620248079299927,3.775980234146118,,,,,,
1764808551.076942,,,,,,,0.4960293173789978,0.07603156566619873,0.4222269058227539,1.1856377124786377,2.207517147064209,-3.7480857372283936
1764808551.079221,0.5235889898180961,3.6307740844011303,-1.5718477504283188,2.307811737060547,0.8713158965110779,3.75913667678833,,,,,,
1764808551.086972,,,,,,,0.5189138054847717,0.08784699440002441,0.4312347173690796,1.063605546951294,2.204207420349121,-3.7385013103485107
1764808551.089273,0.4411287332743406,3.7319679752483963,-1.7971268706277013,2.3386950492858887,0.7924522161483765,3.746551513671875,,,,,,
1764808551.097002,,,,,,,0.5266058444976807,0.06857812404632568,0.4018406569957733,0.9706239104270935,2.1926112174987793,-3.7423503398895264
1764808551.099325,0.3215320475131273,3.4558848427459594,-1.6526017875760792,2.352182149887085,0.6889860033988953,3.7430214881896973,,,,,,
1764808551.107032,,,,,,,0.5157402753829956,0.053179144859313965,0.38644158840179443,0.934406578540802,2.2031521797180176,-3.7081031799316406
1764808551.109377,0.10267126992344856,3.166870040217042,-1.4900561869263649,2.341620922088623,0.610338032245636,3.7370545864105225,,,,,,
1764808551.117062,,,,,,,0.5010981559753418,0.04781061410903931,0.36179792881011963,0.9603785276412964,2.234811305999756,-3.6488420963287354
1764808551.119429,-0.28018530712425704,3.065544339683652,-1.3966586490437387,2.3208539485931396,0.5833258628845215,3.7044215202331543,,,,,,
1764808551.127092,,,,,,,0.48749300837516785,0.05032658576965332,0.35113978385925293,0.9915177226066589,2.2740275859832764,-3.6003353595733643
1764808551.129481,-0.6808189484030008,3.158935155564546,-1.5187959591984748,2.2814674377441406,0.5932444930076599,3.635969400405884,,,,,,
1764808551.137122,,,,,,,0.4896371066570282,0.05734121799468994,0.36195826530456543,0.936290979385376,2.2930824756622314,-3.568397283554077
1764808551.139533,-0.7628677015364169,3.3802667071819306,-1.8901666811138391,2.277498960494995,0.6271716952323914,3.5170257091522217,,,,,,
1764808551.147152,,,,,,,0.503869354724884,0.047258853912353516,0.4089111089706421,0.749404788017273,2.294886350631714,-3.5336737632751465
1764808551.149585,-0.38297348142564297,3.6712630389168854,-1.8087971424162386,2.3368237018585205,0.5883585214614868,3.456484794616699,,,,,,
1764808551.157182,,,,,,,0.5177501440048218,0.01202857494354248,0.4326968193054199,0.569939136505127,2.2887537479400635,-3.474321126937866
1764808551.159637,-0.15820143396556377,3.771805187857151,-1.5429928273439406,2.3990917205810547,0.5106673836708069,3.4735898971557617,,,,,,
1764808551.167213,,,,,,,0.516485869884491,-0.037416279315948486,0.40477001667022705,0.4147675335407257,2.2551794052124023,-3.445582389831543
1764808551.16969,-0.38158758002519605,3.44863823261857,-1.500705006712675,2.4388890266418457,0.47266486287117004,3.477094888687134,,,,,,
1764808551.177243,,,,,,,0.48434120416641235,-0.048076331615448,0.3780888319015503,0.2430698126554489,2.2706458568573,-3.4202141761779785
1764808551.179743,-0.5966857902109622,2.982662935118377,-1.3144077974669635,2.454251766204834,0.47439947724342346,3.4321470260620117,,,,,,
1764808551.187273,,,,,,,0.4444897174835205,-0.03502345085144043,0.34050488471984863,0.21888962388038635,2.3643078804016113,-3.3296313285827637
1764808551.189794,-0.6533382362812757,2.760699223077297,-1.0223293695837259,2.428239107131958,0.49367302656173706,3.342026710510254,,,,,,
1764808551.197303,,,,,,,0.43071484565734863,0.012249112129211426,0.30555909872055054,0.2908373177051544,2.4495787620544434,-3.2511396408081055
1764808551.199846,-0.5474959351062775,2.9220360324591397,-0.8463245679020881,2.3850769996643066,0.5011911988258362,3.2725915908813477,,,,,,
1764808551.207333,,,,,,,0.447271466255188,0.09980237483978271,0.26893556118011475,0.5665433406829834,2.497877359390259,-3.1556754112243652
1764808551.209898,-0.5817793129801749,3.095716190585494,-0.7743762799572199,2.3315765857696533,0.5300151109695435,3.2568962574005127,,,,,,
1764808551.217363,,,,,,,0.4771499037742615,0.1337757110595703,0.2193012237548828,0.9322656989097595,2.4892799854278564,-3.062633991241455
1764808551.21995,-0.9383651382178068,3.021734424051642,-0.7359258455317467,2.255662202835083,0.5948513150215149,3.2380926609039307,,,,,,
1764808551.227393,,,,,,,0.4872395992279053,0.12490618228912354,0.20981328189373016,1.170473575592041,2.4681408405303955,-3.038107395172119
1764808551.230002,-1.2017319970101117,2.908752772516012,-0.8121849824130535,2.164224147796631,0.6715138554573059,3.1820476055145264,,,,,,
1764808551.237423,,,,,,,0.4881793260574341,0.10963374376296997,0.24684147536754608,1.2209367752075195,2.424919605255127,-3.0042355060577393
1764808551.240054,-1.013738651371002,2.9577754543602466,-1.028653311908245,2.0994064807891846,0.733877420425415,3.0987868309020996,,,,,,
1764808551.247453,,,,,,,0.5016105771064758,0.06657421588897705,0.28368866443634033,1.1911988258361816,2.358902931213379,-2.935469388961792
1764808551.250106,-0.5818406877785921,3.127325965335965,-1.039813588348031,2.087796449661255,0.7418666481971741,3.0613784790039062,,,,,,
1764808551.257483,,,,,,,0.5043355226516724,-0.009688735008239746,0.2875185012817383,1.0566409826278687,2.3137354850769043,-2.8953356742858887
1764808551.260158,-0.4238385757774114,3.3006501496315,-0.9016682694613933,2.0829286575317383,0.7165558934211731,3.030336380004883,,,,,,
1764808551.267514,,,,,,,0.4859880805015564,-0.08802604675292969,0.30299144983291626,0.7806028127670288,2.2847936153411865,-2.8972198963165283
1764808551.27021,-0.4775070376008749,3.363159505036473,-0.8794085068583488,2.1000406742095947,0.6700627207756042,2.961918592453003,,,,,,
1764808551.277544,,,,,,,0.465365469455719,-0.14115822315216064,0.3264603018760681,0.47417178750038147,2.2611379623413086,-2.83892822265625
1764808551.280262,-0.5226221906125545,3.2857074320435524,-0.8240273958981037,2.1422502994537354,0.5888370871543884,2.8991174697875977,,,,,,
1764808551.287574,,,,,,,0.4509231448173523,-0.1589263677597046,0.305036723613739,0.2651861608028412,2.25308895111084,-2.761173725128174
1764808551.290314,-0.703325379243493,3.0869220587551593,-0.7022621339261531,2.1564579010009766,0.5069544911384583,2.83249568939209,,,,,,
1764808551.297604,,,,,,,0.4289778470993042,-0.1277097463607788,0.27669575810432434,0.08837330341339111,2.256082057952881,-2.708036184310913
1764808551.300366,-0.8297147938847541,2.8853350720494984,-0.6071581574518233,2.134200096130371,0.43145298957824707,2.7618508338928223,,,,,,
1764808551.307634,,,,,,,0.4226278066635132,-0.0731656551361084,0.22597727179527283,0.11024339497089386,2.255267381668091,-2.6256184577941895
1764808551.310418,-0.8583721485704183,2.716744930538535,-0.6118542063135654,2.1070396900177,0.38035330176353455,2.689291000366211,,,,,,
1764808551.317665,,,,,,,0.40920335054397583,-0.04013901948928833,0.20131218433380127,0.1242484301328659,2.2871124744415283,-2.5928821563720703
1764808551.320471,-0.8800655094623565,2.786402988654375,-0.6527309180378913,2.0641627311706543,0.35790106654167175,2.6098434925079346,,,,,,
1764808551.327694,,,,,,,0.4025948643684387,0.018344402313232422,0.24791580438613892,-0.01674479991197586,2.3298778533935547,-2.5673465728759766
1764808551.330523,-0.684835782828927,3.126470225289464,-1.0512589653395115,2.042708396911621,0.3667329251766205,2.536836624145508,,,,,,
1764808551.337724,,,,,,,0.4247428774833679,0.03176206350326538,0.3179376423358917,-0.17009520530700684,2.283054828643799,-2.51591420173645
1764808551.340575,-0.3755430391639471,3.475701596111059,-1.192002484025806,2.074216365814209,0.36101168394088745,2.539165496826172,,,,,,
1764808551.347754,,,,,,,0.44832175970077515,-0.016527950763702393,0.27282387018203735,-0.2059522420167923,2.2334184646606445,-2.4539365768432617
1764808551.350627,-0.41942485098838805,3.434428505480289,-0.8789373822152614,2.0749905109405518,0.37456637620925903,2.605661392211914,,,,,,
1764808551.357785,,,,,,,0.4170764088630676,-0.06342253088951111,0.20067375898361206,-0.2035042643547058,2.2608089447021484,-2.4700212478637695
1764808551.360679,-0.7514005511045455,2.9773516769677397,-0.5014740425132215,2.0099544525146484,0.3914142847061157,2.6468379497528076,,,,,,
1764808551.367815,,,,,,,0.3667812943458557,-0.026757657527923584,0.17942935228347778,-0.14775864779949188,2.3128676414489746,-2.4310429096221924
1764808551.370731,-1.0172855301976202,2.6281302430182696,-0.38876229396015405,1.9347244501113892,0.4037944972515106,2.619889974594116,,,,,,
1764808551.377845,,,,,,,0.35944753885269165,0.038411498069763184,0.15969112515449524,-0.041260428726673126,2.357572555541992,-2.3836424350738525
1764808551.380783,-1.0992074420809745,2.5986703397780655,-0.4211635113492608,1.8637280464172363,0.3839970827102661,2.525176763534546,,,,,,
1764808551.387875,,,,,,,0.3851536512374878,0.04049253463745117,0.1807062029838562,-0.010779934003949165,2.3357248306274414,-2.3518807888031006
1764808551.390835,-1.0299603028535842,2.826646151715517,-0.46872664203494785,1.8297960758209229,0.2992968261241913,2.430785894393921,,,,,,
1764808551.397905,,,,,,,0.4241340160369873,-0.05025491118431091,0.17756998538970947,-0.09255842119455338,2.273832321166992,-2.3132171630859375
1764808551.400887,-1.1080115107834339,3.0037814187318084,-0.4898761053085327,1.810237169265747,0.22801202535629272,2.3611762523651123,,,,,,
1764808551.407935,,,,,,,0.43189966678619385,-0.17212113738059998,0.1701861023902893,-0.2859804630279541,2.207494020462036,-2.312018871307373
1764808551.410939,-1.3073428275167942,3.026753713518381,-0.390536025634408,1.7893097400665283,0.19582533836364746,2.294203996658325,,,,,,
1764808551.417965,,,,,,,0.41860824823379517,-0.2156907618045807,0.18823915719985962,-0.4589642286300659,2.153001546859741,-2.260697603225708
1764808551.420991,-1.4124796107709408,3.02617679041326,-0.3844081904038787,1.7793781757354736,0.178939551115036,2.2189769744873047,,,,,,
1764808551.427995,,,,,,,0.41052281856536865,-0.167960524559021,0.16933685541152954,-0.5650182366371155,2.130521297454834,-2.161234140396118
1764808551.431043,-1.4866896331027148,2.977247047549486,-0.34067017096430063,1.7652621269226074,0.1814277470111847,2.107783794403076,,,,,,
1764808551.438025,,,,,,,0.3982599377632141,-0.09597957134246826,0.16016006469726562,-0.5472134351730347,2.1057662963867188,-2.046894073486328
1764808551.441095,-1.3737199642658233,2.814959805575013,-0.24437632711827753,1.7314964532852173,0.20258288085460663,1.9806402921676636,,,,,,
1764808551.448055,,,,,,,0.400098979473114,-0.07619279623031616,0.1212419867515564,-0.44027456641197205,2.0404064655303955,-1.9186837673187256
1764808551.451147,-1.245557110211253,2.5635826597839593,0.047017479501664634,1.6646965742111206,0.2212710827589035,1.8977116346359253,,,,,,
1764808551.458086,,,,,,,0.4039238691329956,-0.06766611337661743,0.053209781646728516,-0.30780866742134094,1.9819965362548828,-1.8192085027694702
1764808551.461199,-1.2225932909920811,2.526549690940976,0.28788550623804327,1.5583912134170532,0.27059033513069153,1.863100528717041,,,,,,
1764808551.468116,,,,,,,0.4058339595794678,-0.06677386164665222,0.0046312808990478516,-0.13121189177036285,1.888934850692749,-1.726251244544983
1764808551.471251,-1.4393062428981065,2.5655548366397616,0.531140720371902,1.4278843402862549,0.30464842915534973,1.828450322151184,,,,,,
1764808551.478146,,,,,,,0.4217902421951294,-0.0675291121006012,-0.03757059574127197,0.05242585018277168,1.7955400943756104,-1.6282764673233032
1764808551.481304,-1.7984581192314624,2.634665782266855,0.6567594429016113,1.2693636417388916,0.3252162039279938,1.7454358339309692,,,,,,
1764808551.488176,,,,,,,0.4415004849433899,-0.07714521884918213,-0.058201372623443604,0.20157702267169952,1.7026828527450562,-1.493277907371521
1764808551.491356,-1.923899147106707,2.8259184219628573,0.6978884488865733,1.1222554445266724,0.3417970538139343,1.61373770236969,,,,,,
1764808551.498206,,,,,,,0.47167879343032837,-0.11882933974266052,-0.07359349727630615,0.33767732977867126,1.5691150426864624,-1.3360611200332642
1764808551.501408,-1.969647629585862,3.007768442541361,0.9129901662036776,0.9869930148124695,0.3251316547393799,1.4632682800292969,,,,,,
1764808551.508236,,,,,,,0.5073758959770203,-0.17368224263191223,-0.09713667631149292,0.4180365800857544,1.4049146175384521,-1.201918601989746
1764808551.51146,-2.101533303555846,3.1870635179400444,1.1017454361259937,0.8431922197341919,0.2616139352321625,1.2874056100845337,,,,,,
1764808551.518266,,,,,,,0.5506430268287659,-0.2247600257396698,-0.1123201847076416,0.45905086398124695,1.1991842985153198,-1.0309289693832397
1764808551.521512,-2.2555647583603857,3.2417315121948715,1.1292711564332245,0.6944625377655029,0.16697274148464203,1.0875309705734253,,,,,,
1764808551.528296,,,,,,,0.5886394381523132,-0.2764238715171814,-0.15364515781402588,0.4284191429615021,0.9410066604614258,-0.8691189885139465
1764808551.531564,-2.3154136623844503,3.053829936492443,1.0981523800700903,0.527378499507904,0.07693924009799957,0.8642347455024719,,,,,,
1764808551.538326,,,,,,,0.5924190878868103,-0.3079981207847595,-0.1602698564529419,0.3217584788799286,0.6945388317108154,-0.7085578441619873
1764808551.541616,-2.2240993605166675,3.021817426159978,0.994601989224553,0.3643333911895752,0.018863588571548462,0.6648016571998596,,,,,,
1764808551.548356,,,,,,,0.5733339190483093,-0.34239012002944946,-0.16699981689453125,0.16593113541603088,0.4701155722141266,-0.5412086844444275
1764808551.551668,-2.1518635608673096,3.1477918302595613,0.9312222807258367,0.2158307433128357,-0.03303742781281471,0.4885518252849579,,,,,,
1764808551.558387,,,,,,,0.5420728921890259,-0.38587239384651184,-0.15463536977767944,-0.033673059195280075,0.28371718525886536,-0.39757823944091797
1764808551.56172,-2.2368358002319932,3.4362580589950085,0.9038637336790561,0.07822024077177048,-0.07170682400465012,0.31636759638786316,,,,,,
1764808551.568417,,,,,,,0.5323696732521057,-0.39420902729034424,-0.13504040241241455,-0.16638866066932678,0.10608754307031631,-0.23116296529769897
1764808551.571772,-2.3513588359907267,3.8565456642925735,0.870150264647603,-0.05569121614098549,-0.07612926512956619,0.148869127035141,,,,,,
1764808551.578447,,,,,,,0.5680539011955261,-0.3625792860984802,-0.12783849239349365,-0.2018025815486908,-0.09551561623811722,-0.04228704422712326
1764808551.581824,-2.416129706586897,4.080327531671524,0.8463999712258576,-0.16592417657375336,-0.073529914021492,-0.04724806174635887,,,,,,
1764808551.588477,,,,,,,0.6093377470970154,-0.32861584424972534,-0.11368775367736816,-0.17000529170036316,-0.3326171040534973,0.1663224846124649
1764808551.591876,-2.356384847459197,3.996467345201969,0.97044632987231,-0.2712378203868866,-0.063172347843647,-0.2774061858654022,,,,,,
1764808551.598507,,,,,,,0.622606635093689,-0.3147552013397217,-0.12239992618560791,-0.1567254364490509,-0.5376714468002319,0.3697024881839752
1764808551.601928,-2.1532596914008257,3.853060744786262,1.1469243020236493,-0.4215359389781952,-0.04545874521136284,-0.5125987529754639,,,,,,
1764808551.608537,,,,,,,0.6195812821388245,-0.28451207280158997,-0.13894760608673096,-0.12405184656381607,-0.7240879535675049,0.5815723538398743
1764808551.61198,-1.8323747096195815,3.744274206852913,1.0271747637882829,-0.5720016360282898,-0.07085811346769333,-0.7300266623497009,,,,,,
1764808551.618567,,,,,,,0.6125848293304443,-0.27077430486679077,-0.13735413551330566,-0.1334349662065506,-0.9252588748931885,0.7873934507369995
1764808551.622032,-1.6659736025854943,3.5003169819295405,0.7882090635418891,-0.6963216066360474,-0.11809218674898148,-0.9320055842399597,,,,,,
1764808551.628597,,,,,,,0.5726977586746216,-0.2866055369377136,-0.1167709231376648,-0.1785380244255066,-1.1143524646759033,0.9810447096824646
1764808551.632085,-1.5584800270721315,3.170712102597952,0.47560383432805536,-0.813945472240448,-0.15151779353618622,-1.1088626384735107,,,,,,
1764808551.638627,,,,,,,0.5118677020072937,-0.2898826003074646,-0.08360421657562256,-0.1997157484292984,-1.2567124366760254,1.1602897644042969
1764808551.642137,-1.5391709309682249,2.929299885982275,0.1394172385185957,-0.9237314462661743,-0.1594604104757309,-1.2718462944030762,,,,,,
1764808551.648658,,,,,,,0.4609135389328003,-0.26749610900878906,-0.05022263526916504,-0.17181727290153503,-1.3800396919250488,1.334809422492981
1764808551.652189,-1.5717118490889668,2.6585926012992855,-0.11180383992791175,-1.0057705640792847,-0.14276373386383057,-1.4339901208877563,,,,,,
1764808551.658688,,,,,,,0.41693705320358276,-0.24494168162345886,-0.0120009183883667,-0.14321918785572052,-1.4740490913391113,1.4968864917755127
1764808551.662241,-1.6067732255980371,2.576826756760478,-0.12801876940876245,-1.0661004781723022,-0.12301982939243317,-1.5939971208572388,,,,,,
1764808551.668718,,,,,,,0.38812118768692017,-0.23513641953468323,0.02144181728363037,-0.13668192923069,-1.5338144302368164,1.6373718976974487
1764808551.672293,-1.6689318678691982,2.760723188474774,-0.08516133219599724,-1.1322145462036133,-0.10148178040981293,-1.7645052671432495,,,,,,
1764808551.678748,,,,,,,0.3954659104347229,-0.23682129383087158,0.042951226234436035,-0.15610702335834503,-1.5967662334442139,1.7623839378356934
1764808551.682345,-1.6833280574902891,3.1165882982224224,-0.06134937171489,-1.2069063186645508,-0.09674087166786194,-1.9319173097610474,,,,,,
1764808551.688778,,,,,,,0.4398766756057739,-0.2264377474784851,0.0409509539604187,-0.20860405266284943,-1.6969162225723267,1.890544056892395
1764808551.692397,-1.5142790662959218,3.194618463364243,-0.22760785540789363,-1.2840412855148315,-0.12444041669368744,-2.097872018814087,,,,,,
1764808551.698808,,,,,,,0.48274439573287964,-0.2184017300605774,0.04781794548034668,-0.2672540247440338,-1.861427903175354,2.004145622253418
1764808551.702449,-1.1862485966742038,2.846579517197609,-0.40467297979742284,-1.3427351713180542,-0.17508281767368317,-2.25637149810791,,,,,,
1764808551.708838,,,,,,,0.4634036421775818,-0.2177465856075287,0.05609416961669922,-0.40011292695999146,-1.9542665481567383,2.1027848720550537
1764808551.712501,-0.8274962410524487,2.798850382295251,-0.3953375806972384,-1.4413642883300781,-0.22792446613311768,-2.3937268257141113,,,,,,
1764808551.718868,,,,,,,0.43111932277679443,-0.19451236724853516,0.07753831148147583,-0.52671879529953,-1.997545599937439,2.1998908519744873
1764808551.722553,-0.6311854411840438,3.0138790343761444,-0.6927855727896094,-1.5503127574920654,-0.3010256886482239,-2.5123562812805176,,,,,,
1764808551.728898,,,,,,,0.4407341480255127,-0.191055029630661,0.11873829364776611,-0.6890918016433716,-2.110422372817993,2.2731854915618896
1764808551.732605,-0.6799170311272144,3.2562954595983027,-1.1168676019340753,-1.6391544342041016,-0.400727778673172,-2.6258513927459717,,,,,,
1764808551.738928,,,,,,,0.47145456075668335,-0.21260422468185425,0.16295629739761353,-0.9993700385093689,-2.2371792793273926,2.3399198055267334
1764808551.742657,-0.7435901696145534,3.363931658452749,-1.5933210388287902,-1.6993039846420288,-0.49710845947265625,-2.7456979751586914,,,,,,
1764808551.748958,,,,,,,0.4920641779899597,-0.24250099062919617,0.23143437504768372,-1.3191683292388916,-2.417809009552002,2.408644199371338
1764808551.752709,-0.6177659876406193,3.200898566547036,-1.887937899148464,-1.719383955001831,-0.570429801940918,-2.8562607765197754,,,,,,
1764808551.758989,,,,,,,0.4649387001991272,-0.2726172208786011,0.27435946464538574,-1.5644207000732422,-2.5115580558776855,2.4632492065429688
1764808551.762761,-0.4915045832931995,3.282272196897864,-1.6222352908849715,-1.7337324619293213,-0.6337214112281799,-2.948101758956909,,,,,,
1764808551.769019,,,,,,,0.4293508529663086,-0.23311492800712585,0.28218966722488403,-1.6859514713287354,-2.538132905960083,2.5248889923095703
1764808551.772813,-0.5094885682731867,3.463030330586433,-1.1842960013017059,-1.7549786567687988,-0.6868520379066467,-3.0314102172851562,,,,,,
1764808551.779049,,,,,,,0.4514816999435425,-0.15586811304092407,0.2530342638492584,-1.5599764585494995,-2.6060473918914795,2.6100821495056152
1764808551.782866,-0.7980220170259475,3.6497879969507454,-0.6683887981578708,-1.8089131116867065,-0.7065470814704895,-3.1124815940856934,,,,,,
1764808551.789079,,,,,,,0.5078074932098389,-0.0705224871635437,0.19538500905036926,-1.3290385007858276,-2.639275550842285,2.721126079559326
1764808551.792918,-1.2402367919713257,3.88245751966238,-0.558906971436739,-1.8787859678268433,-0.6827303767204285,-3.1983258724212646,,,,,,
1764808551.799109,,,,,,,0.5672354102134705,-0.01904851198196411,0.17283278703689575,-1.1407266855239868,-2.739758253097534,2.838789224624634
1764808551.80297,-1.5507862576991318,3.5633857247829437,-1.075243213647604,-1.9131765365600586,-0.6223514676094055,-3.330857038497925,,,,,,
1764808551.809139,,,,,,,0.5448311567306519,-0.0948786735534668,0.21218633651733398,-1.2351998090744019,-2.7817633152008057,2.941887378692627
1764808551.813022,-1.5363573348522186,3.2201129701048132,-1.6298481039762496,-1.9329829216003418,-0.5781725645065308,-3.553044319152832,,,,,,
1764808551.819169,,,,,,,0.4797235131263733,-0.20791876316070557,0.310751736164093,-1.685011386871338,-2.74086594581604,3.0520570278167725
1764808551.823074,-0.7639139957189559,3.358116834694147,-2.279690168704837,-1.9216878414154053,-0.5879257321357727,-3.787426471710205,,,,,,
1764808551.829199,,,,,,,0.47043532133102417,-0.3056468367576599,0.419353723526001,-2.2206873893737793,-2.8104844093322754,3.1372692584991455
1764808551.833126,0.36128245862126346,3.717824591344595,-2.7175322815239427,-1.8530771732330322,-0.6920095086097717,-3.9490559101104736,,,,,,
1764808551.839229,,,,,,,0.48966675996780396,-0.3686925172805786,0.4538576602935791,-2.701986074447632,-2.9343278408050537,3.1591796875
1764808551.843178,1.1442442691594361,3.881933203527331,-2.4405156675636768,-1.8015609979629517,-0.8847057819366455,-4.042263984680176,,,,,,
1764808551.84926,,,,,,,0.5011177062988281,-0.295751690864563,0.45055365562438965,-2.8821816444396973,-3.0173749923706055,3.1764533519744873
1764808551.85323,1.383662681609392,3.7536177892595526,-1.8661480921447275,-1.7995058298110962,-1.097000241279602,-4.102109909057617,,,,,,
1764808551.85929,,,,,,,0.5174192786216736,-0.08627194166183472,0.4330891966819763,-2.6653337478637695,-3.096862554550171,3.2244679927825928
1764808551.863282,1.069720650833845,3.7703900603622196,-1.047737951606512,-1.8745083808898926,-1.2327295541763306,-4.125671863555908,,,,,,
1764808551.86932,,,,,,,0.5568951368331909,0.1562652587890625,0.34939146041870117,-2.134488105773926,-3.1504390239715576,3.28320574760437
1764808551.873334,0.24381927775740622,4.1124060929775235,-0.13044077239129692,-2.0489652156829834,-1.2313215732574463,-4.091099262237549,,,,,,
1764808551.87935,,,,,,,0.6394606828689575,0.3340761065483093,0.20559167861938477,-1.5214316844940186,-3.2102675437927246,3.3497893810272217
1764808551.883386,-0.8706120369404554,4.048289886897802,-0.4781996960401535,-2.261080265045166,-1.0854876041412354,-4.060710430145264,,,,,,
1764808551.88938,,,,,,,0.6895902752876282,0.34583765268325806,0.16305232048034668,-1.0948052406311035,-3.3971991539001465,3.3157143592834473
1764808551.893439,-1.491010711172223,3.386434582161903,-1.453637550589442,-2.4035227298736572,-0.8773893117904663,-4.119592666625977,,,,,,
1764808551.89941,,,,,,,0.624100923538208,0.227836012840271,0.2372678518295288,-0.9344155788421631,-3.5102345943450928,3.3740522861480713
1764808551.90349,-0.9117746529340743,3.1564208346560596,-1.8302245458483695,-2.516390323638916,-0.690380334854126,-4.208734035491943,,,,,,
1764808551.90944,,,,,,,0.5376171469688416,0.1167137622833252,0.2740597724914551,-0.9397574663162231,-3.501359462738037,3.416944980621338
1764808551.913542,0.22454583748877047,3.5092838399782775,-2.1220961991131304,-2.63004732131958,-0.5964628458023071,-4.27914571762085,,,,,,
1764808551.91947,,,,,,,0.49951791763305664,0.035798728466033936,0.34707164764404297,-1.0522440671920776,-3.5756614208221436,3.39846134185791
1764808551.923594,1.1100783801853655,3.926389600369334,-2.00130007443428,-2.7020773887634277,-0.7146379947662354,-4.313926696777344,,,,,,
1764808551.9295,,,,,,,0.5302022695541382,-0.03731334209442139,0.3526262044906616,-1.2100951671600342,-3.66501522064209,3.449298858642578
1764808551.933647,1.2921715618699787,3.9448043779820203,-2.009616651880741,-2.78257417678833,-0.9801884293556213,-4.324155807495117,,,,,,
1764808551.939531,,,,,,,0.5931822061538696,-0.057600319385528564,0.3580883741378784,-1.5470890998840332,-3.8631718158721924,3.4359095096588135
1764808551.943699,1.0914011522442102,3.289965674009919,-2.8725761282414197,-2.8348190784454346,-1.241093397140503,-4.405666351318359,,,,,,
1764808551.949561,,,,,,,0.5834492444992065,-0.09698432683944702,0.46559154987335205,-1.8727408647537231,-4.118422031402588,3.466784715652466
1764808551.953751,1.1786901441186666,2.6819033342599865,-2.9248996051967144,-2.891479253768921,-1.4684064388275146,-4.491464138031006,,,,,,
1764808551.959591,,,,,,,0.527541995048523,-0.11752808094024658,0.47357484698295593,-2.008885622024536,-4.217245101928711,3.511550188064575
1764808551.963803,1.173150630170107,2.607841488227248,-2.3398386401973665,-3.052208185195923,-1.606234073638916,-4.505495548248291,,,,,,
1764808551.969621,,,,,,,0.5184222459793091,-0.015188276767730713,0.4258635640144348,-1.8906618356704712,-4.291332244873047,3.4907126426696777
1764808551.973855,0.5501368050038814,2.7077526457875964,-2.013901051201671,-3.245696544647217,-1.6591620445251465,-4.510985851287842,,,,,,
1764808551.979651,,,,,,,0.5543004274368286,0.09594464302062988,0.40756165981292725,-1.5913819074630737,-4.407190322875977,3.5074174404144287
1764808551.983907,-0.1672708756059408,2.916022763518989,-1.446655436617136,-3.4008569717407227,-1.6665335893630981,-4.510073661804199,,,,,,
1764808551.989681,,,,,,,0.6012358665466309,0.1739654541015625,0.3624015748500824,-1.3020951747894287,-4.430702209472656,3.5353715419769287
1764808551.993959,-0.8066413768112659,3.3418747249454257,-1.1057666544660925,-3.558687925338745,-1.5886523723602295,-4.506276607513428,,,,,,
1764808551.999711,,,,,,,0.6253225803375244,0.20095407962799072,0.3748704195022583,-1.2058626413345337,-4.4198317527771,3.4939746856689453
1764808552.004012,-1.1845184118807315,3.8116836092591284,-1.4343990355037153,-3.661585569381714,-1.4303210973739624,-4.547021865844727,,,,,,
1764808552.009741,,,,,,,0.642249345779419,0.1608743667602539,0.450099915266037,-1.2494782209396362,-4.447747707366943,3.4651904106140137
1764808552.014064,-0.7781079407662153,4.345756583690643,-1.5160041365228591,-3.700927972793579,-1.3015129566192627,-4.5882086753845215,,,,,,
1764808552.019771,,,,,,,0.6696709394454956,0.1133718490600586,0.4797896146774292,-1.365903377532959,-4.471436500549316,3.4551644325256348
1764808552.024116,0.1276701021015644,4.995478967562318,-1.3237310677379368,-3.721001148223877,-1.2589882612228394,-4.540234088897705,,,,,,
1764808552.029801,,,,,,,0.6961853504180908,0.1280606985092163,0.49567776918411255,-1.4331661462783813,-4.513964653015137,3.4079031944274902
1764808552.034168,0.8984060527950525,5.31552691399753,-1.317861591182649,-3.744220495223999,-1.2593766450881958,-4.475062370300293,,,,,,
1764808552.039831,,,,,,,0.705434262752533,0.19334834814071655,0.5076109766960144,-1.3195531368255615,-4.567039966583252,3.4082469940185547
1764808552.04422,1.4506792853057384,5.1284477605938905,-1.1271101790070532,-3.776262044906616,-1.3069655895233154,-4.384555816650391,,,,,,
1764808552.049862,,,,,,,0.6983449459075928,0.2587409019470215,0.4613717794418335,-1.0008153915405273,-4.590106010437012,3.4530389308929443
1764808552.054272,1.3538047189623117,4.632876366253197,-0.8863567185610532,-3.8640408515930176,-1.3658497333526611,-4.290664196014404,,,,,,
1764808552.059892,,,,,,,0.6716867089271545,0.3018421530723572,0.4153229594230652,-0.5827734470367432,-4.577550888061523,3.505661725997925
1764808552.064324,0.7559124755710362,4.169023759995401,-0.9176863611958921,-4.000603675842285,-1.3630913496017456,-4.254724025726318,,,,,,
1764808552.069922,,,,,,,0.6521141529083252,0.3084818124771118,0.3890959620475769,-0.04292520135641098,-4.528460502624512,3.60426664352417
1764808552.074377,0.21776596809029578,4.083704899150133,-1.1220207469135521,-4.147119998931885,-1.2804549932479858,-4.269839286804199,,,,,,
1764808552.079952,,,,,,,0.6520087718963623,0.30972570180892944,0.4208899140357971,0.4761824309825897,-4.457899570465088,3.7193222045898438
1764808552.084429,0.015415595796704292,4.659592816004157,-1.479060599528998,-4.267187118530273,-1.1285607814788818,-4.302822589874268,,,,,,
1764808552.089982,,,,,,,0.6757771372795105,0.3403705954551697,0.4907706677913666,1.000699758529663,-4.381195545196533,3.8951971530914307
1764808552.094481,0.1107955396682024,5.611992324793339,-1.9299584471456706,-4.350108623504639,-0.9310296177864075,-4.337586879730225,,,,,,
1764808552.100012,,,,,,,0.7115324139595032,0.36184418201446533,0.5374599695205688,1.4173060655593872,-4.223844051361084,4.023245334625244
1764808552.104533,0.5241325951755047,6.572395691817999,-2.2086644754976033,-4.389945983886719,-0.7796615362167358,-4.354277610778809,,,,,,
1764808552.110042,,,,,,,0.7408193349838257,0.39616864919662476,0.610913872718811,1.635053277015686,-4.043420791625977,4.188086986541748
1764808552.114585,1.0720406182140112,7.145445754897594,-2.357524080622196,-4.372465133666992,-0.6962577104568481,-4.314830303192139,,,,,,
1764808552.120072,,,,,,,0.7815881967544556,0.3916016221046448,0.6518661975860596,1.7749049663543701,-3.907294988632202,4.33989953994751
1764808552.124637,1.3456915551334618,7.17078010264039,-2.281698147526383,-4.351712703704834,-0.6970295906066895,-4.2426934242248535,,,,,,
1764808552.130102,,,,,,,0.8033103942871094,0.33673524856567383,0.6671915054321289,1.7665516138076782,-3.760505437850952,4.428440093994141
1764808552.134689,1.3756173223197459,6.952551193213463,-2.2892238668560982,-4.34480619430542,-0.777980625629425,-4.208695888519287,,,,,,
1764808552.140133,,,,,,,0.8057320713996887,0.292896568775177,0.6791388988494873,1.6695762872695923,-3.6043522357940674,4.554107666015625
1764808552.144741,1.451284265461564,6.706032008847594,-2.39069511334002,-4.323858261108398,-0.9068353772163391,-4.2452712059021,,,,,,
1764808552.150163,,,,,,,0.8037678003311157,0.2669074535369873,0.6824508905410767,1.4977165460586548,-3.441906690597534,4.724055767059326
1764808552.154793,1.6706564997047184,6.678577015689015,-2.323988306245208,-4.292963981628418,-1.0710203647613525,-4.3419928550720215,,,,,,
1764808552.160193,,,,,,,0.7995318174362183,0.25547224283218384,0.7080479860305786,1.236843466758728,-3.240910291671753,4.9132080078125
1764808552.164845,1.9594062215566634,6.874799260491132,-2.4065245506346225,-4.230562686920166,-1.2418838739395142,-4.457418918609619,,,,,,
1764808552.170223,,,,,,,0.8053854703903198,0.24970871210098267,0.7374699115753174,0.842275857925415,-3.082542657852173,5.122004508972168
1764808552.174897,2.1197949364334345,6.827113964730501,-2.6034634192734956,-4.105706691741943,-1.3954625129699707,-4.53432035446167,,,,,,
1764808552.180253,,,,,,,0.8166494965553284,0.20392847061157227,0.7556349039077759,0.33215370774269104,-2.9805591106414795,5.227442264556885
1764808552.184949,1.9585709397763014,6.4842328397184605,-2.2481273018360137,-3.989250421524048,-1.5758618116378784,-4.560649394989014,,,,,,
1764808552.190283,,,,,,,0.8017166256904602,0.13330459594726562,0.7870906591415405,-0.4031202793121338,-2.8145105838775635,5.2431230545043945
1764808552.195001,1.59782507224977,6.259632641693949,-1.9394097277104854,-3.916060209274292,-1.7607312202453613,-4.579352378845215,,,,,,
1764808552.200313,,,,,,,0.7881624698638916,0.13364362716674805,0.8004316091537476,-1.2037891149520874,-2.6163980960845947,5.268133163452148
1764808552.205053,1.1669748641446231,6.389672980058193,-2.0550340027093887,-3.8517658710479736,-1.9275778532028198,-4.639908313751221,,,,,,
1764808552.210343,,,,,,,0.8175737857818604,0.18224310874938965,0.7978466749191284,-1.8084945678710938,-2.510812520980835,5.234457492828369
1764808552.215106,0.9359338194176554,6.629496466177701,-2.2786767538785933,-3.7532308101654053,-2.0398201942443848,-4.7072834968566895,,,,,,
1764808552.220373,,,,,,,0.8555353879928589,0.2441844940185547,0.8029184341430664,-2.163520336151123,-2.4878716468811035,5.170419216156006
1764808552.225158,0.927743498699367,6.691975426444411,-2.3696739526212216,-3.6558384895324707,-2.097989082336426,-4.728931903839111,,,,,,
1764808552.230403,,,,,,,0.8697417378425598,0.3230329751968384,0.8111079931259155,-2.3412363529205322,-2.4876210689544678,5.127877712249756
1764808552.23521,0.8808321099206805,6.510297839823365,-2.525117027789354,-3.556135654449463,-2.1115920543670654,-4.702924728393555,,,,,,
1764808552.240434,,,,,,,0.8506140112876892,0.4154549837112427,0.812019944190979,-2.3885772228240967,-2.456289291381836,5.102766036987305
1764808552.245262,0.7553729618668555,6.165532216238975,-2.6118881332695483,-3.4478578567504883,-2.0594167709350586,-4.632739543914795,,,,,,
1764808552.250464,,,,,,,0.8030657172203064,0.49317026138305664,0.7849208116531372,-2.30839467048645,-2.3816254138946533,5.0787672996521
1764808552.255314,0.6474307658031583,5.745797568649054,-2.4908827497541903,-3.340404748916626,-1.9462319612503052,-4.5451812744140625,,,,,,
1764808552.260494,,,,,,,0.73726487159729,0.5367161631584167,0.7360409498214722,-2.151557445526123,-2.2376859188079834,5.011284351348877
1764808552.265366,0.5254178126804531,5.340926728191971,-2.3625723039224744,-3.2510361671447754,-1.8066699504852295,-4.448225975036621,,,,,,
1764808552.270524,,,,,,,0.6685608625411987,0.583488941192627,0.6953206062316895,-1.9710001945495605,-2.057581663131714,4.936758518218994
1764808552.275418,0.3701835579574108,5.1224435517430305,-2.3299429768659174,-3.1689271926879883,-1.65546715259552,-4.3509840965271,,,,,,
1764808552.280554,,,,,,,0.6184584498405457,0.627072274684906,0.6627890467643738,-1.7190123796463013,-1.8295038938522339,4.825302600860596
1764808552.28547,0.2782413334496319,5.42371782412529,-2.3757038804352284,-3.11328387260437,-1.4924654960632324,-4.261592388153076,,,,,,
1764808552.290584,,,,,,,0.5989174246788025,0.6688106656074524,0.6321841478347778,-1.5148470401763916,-1.6243698596954346,4.73696231842041
1764808552.295522,0.37595395805239673,5.8132180769711725,-2.7723335467696186,-3.016073226928711,-1.3143532276153564,-4.174593448638916,,,,,,
1764808552.300614,,,,,,,0.6161975860595703,0.6980545520782471,0.610546886920929,-1.2938547134399414,-1.5574119091033936,4.643759727478027
1764808552.305574,0.740587699862942,5.7538090256690975,-3.135202105538547,-2.840181589126587,-1.1127532720565796,-4.058536529541016,,,,,,
1764808552.310644,,,,,,,0.5993210673332214,0.6911098957061768,0.6047429442405701,-1.1308820247650146,-1.5123897790908813,4.5179877281188965
1764808552.315626,1.1715953635521232,5.267889549031853,-3.216163647957146,-2.6311910152435303,-0.8830877542495728,-3.9078896045684814,,,,,,
1764808552.320674,,,,,,,0.517631471157074,0.7033418416976929,0.601312518119812,-1.0226999521255493,-1.3972523212432861,4.405460357666016
1764808552.325678,1.4698678237698972,4.575038217529654,-3.1423759426906703,-2.4695074558258057,-0.6825830936431885,-3.7537355422973633,,,,,,
1764808552.330704,,,,,,,0.40383630990982056,0.7208691835403442,0.5699030160903931,-0.9203152656555176,-1.1842901706695557,4.269397735595703
1764808552.33573,1.724383852108568,4.217470980039239,-3.2341499710246917,-2.3543546199798584,-0.5375058054924011,-3.646073818206787,,,,,,
1764808552.340735,,,,,,,0.32259267568588257,0.7277031540870667,0.5341548323631287,-0.8666189908981323,-0.9408934712409973,4.156171798706055
1764808552.345782,2.159330243486166,4.215670068097114,-3.2849440464556214,-2.2385382652282715,-0.43502500653266907,-3.5738658905029297,,,,,,
1764808552.350765,,,,,,,0.3136839270591736,0.7050658464431763,0.47594577074050903,-0.7859316468238831,-0.7843254208564758,4.092938423156738
