timestamp,phone_accel_x,phone_accel_y,phone_accel_z,phone_gyro_x,phone_gyro_y,phone_gyro_z,watch_accel_x,watch_accel_y,watch_accel_z,watch_gyro_x,watch_gyro_y,watch_gyro_z
1764808561.111227,-0.05131181569471955,3.035485886028409,-0.659290714944899,1.994755744934082,-0.4409976303577423,2.91499662399292,,,,,,
1764808561.117071,,,,,,,0.33639270067214966,0.2795597016811371,0.16388428211212158,0.09087074548006058,0.8770580291748047,-3.719794511795044
1764808561.121279,-0.022341486069746314,2.3866169041156766,-0.765709939225018,2.036193370819092,-0.3803686499595642,2.9472851753234863,,,,,,
1764808561.127102,,,,,,,0.31150615215301514,0.2651115655899048,0.1424524188041687,0.25284475088119507,0.8966953754425049,-3.728292465209961
1764808561.131331,0.131111766988039,1.765416265851259,-0.9004302520990372,2.0467569828033447,-0.33746278285980225,2.956420421600342,,,,,,
1764808561.137132,,,,,,,0.2827721834182739,0.2289687991142273,0.13534653186798096,0.3437613844871521,0.9673623442649841,-3.7244436740875244
1764808561.141383,0.22751272447034715,1.5716957747370004,-1.0659855559587479,2.0333943367004395,-0.2641933560371399,2.9415299892425537,,,,,,
1764808561.147162,,,,,,,0.27749407291412354,0.1723541021347046,0.16942501068115234,0.39559635519981384,1.0274685621261597,-3.665740728378296
1764808561.151435,0.24113997554555533,1.7966285657167433,-0.9854697114810347,2.030736207962036,-0.1269509494304657,2.9240331649780273,,,,,,
1764808561.157192,,,,,,,0.302767813205719,0.08519154787063599,0.16210168600082397,0.40363189578056335,1.1194757223129272,-3.669135808944702
1764808561.161487,0.2121215324625373,2.351259759530425,-0.3778603761956095,1.9449161291122437,-0.064717136323452,2.880840539932251,,,,,,
1764808561.167222,,,,,,,0.3463022708892822,0.041330546140670776,0.1502283811569214,0.28440430760383606,1.183463454246521,-3.624562978744507
1764808561.171539,0.28662469252198935,2.9722271735608574,-0.32585107975602146,1.8529131412506104,-0.12667624652385712,2.8238816261291504,,,,,,
1764808561.177253,,,,,,,0.440484881401062,0.02928096055984497,0.13195955753326416,0.19645443558692932,1.0649429559707642,-3.5506505966186523
1764808561.181591,0.32906405045315623,3.164214557272196,-0.6574374882936477,1.8609521389007568,-0.2780737578868866,2.7819314002990723,,,,,,
1764808561.187282,,,,,,,0.5028493404388428,-0.01911589503288269,0.1375637650489807,0.03952021524310112,0.8244075775146484,-3.474579334259033
1764808561.191644,0.18483678130432962,2.92414323387146,-0.833661485683918,1.9388500452041626,-0.41346004605293274,2.7430496215820312,,,,,,
1764808561.197312,,,,,,,0.46873795986175537,-0.08309584856033325,0.19474339485168457,-0.2537211775779724,0.6477148532867432,-3.3334357738494873
1764808561.201696,-0.07203121698796748,2.1900234879136082,-0.9469164012029766,2.02557373046875,-0.43844741582870483,2.6850481033325195,,,,,,
1764808561.207342,,,,,,,0.34725964069366455,-0.18532288074493408,0.2214067578315735,-0.47869864106178284,0.6733936071395874,-3.219447135925293
1764808561.211748,-0.41799160331487656,1.2573539309889077,-0.4624865786015987,2.047759532928467,-0.40855368971824646,2.5811023712158203,,,,,,
1764808561.217372,,,,,,,0.18645310401916504,-0.25261789560317993,0.24001741409301758,-0.6350111365318298,1.037551760673523,-3.0964818000793457
1764808561.221801,-0.7383397017404436,1.4477286188066005,0.2985141600191593,1.9558826684951782,-0.3588167428970337,2.367943286895752,,,,,,
1764808561.227403,,,,,,,0.1603562831878662,-0.1805606186389923,0.18155395984649658,-0.5629100203514099,1.436181664466858,-2.912952184677124
1764808561.231852,-0.7062950427040458,2.5806390085250137,0.801451845344156,1.863479495048523,-0.3741181492805481,2.151624917984009,,,,,,
1764808561.237433,,,,,,,0.3302032947540283,-0.07110407948493958,0.049465060234069824,-0.2343614101409912,1.4673705101013184,-2.863553762435913
1764808561.241904,-0.4681047107443213,3.583657528439164,1.1863596558332443,1.7851074934005737,-0.5217025279998779,2.052095413208008,,,,,,
1764808561.247463,,,,,,,0.525165855884552,0.01926177740097046,-0.01918792724609375,0.08197340369224548,1.223738193511963,-2.773367404937744
1764808561.251956,-0.44757221032530065,3.9540649582803247,0.8961141424655914,1.7642220258712769,-0.6776068210601807,2.0654520988464355,,,,,,
1764808561.257493,,,,,,,0.6122050881385803,0.04652884602546692,-0.013169169425964355,0.27723148465156555,0.9616965055465698,-2.629105806350708
1764808561.262008,-0.740289959025383,3.588535948130488,0.2727729119759053,1.8061603307724,-0.6923298835754395,2.121114730834961,,,,,,
1764808561.267524,,,,,,,0.5416811108589172,-0.015581727027893066,0.032703518867492676,0.277086079120636,0.8288979530334473,-2.5346202850341797
1764808561.27206,-1.1897995671540498,2.56458862195611,-0.046425066566467284,1.8718544244766235,-0.5978594422340393,2.156005859375,,,,,,
1764808561.277553,,,,,,,0.37495172023773193,-0.12761306762695312,0.09187828749418259,0.1300104558467865,0.8248994946479797,-2.5159144401550293
1764808561.282112,-1.6012576770469544,1.468970144277811,0.2738368148803711,1.90492582321167,-0.4902741014957428,2.125523090362549,,,,,,
1764808561.287583,,,,,,,0.22421836853027344,-0.21917998790740967,0.13887667655944824,-0.08847686648368835,1.0560873746871948,-2.549581289291382
1764808561.292165,-1.9346420749172568,1.6399860516309737,1.1867407641053198,1.793199062347412,-0.4507906138896942,1.9752840995788574,,,,,,
1764808561.297613,,,,,,,0.1936224102973938,-0.19876140356063843,0.1265791654586792,-0.3384532630443573,1.3797861337661743,-2.478010416030884
1764808561.302217,-1.7869877539291976,2.8683336683660743,1.2010440147459507,1.679497241973877,-0.43217378854751587,1.7652342319488525,,,,,,
1764808561.307643,,,,,,,0.37062156200408936,-0.10887986421585083,0.03178476542234421,-0.3020033836364746,1.3197996616363525,-2.4346585273742676
1764808561.312269,-1.1544394999593495,3.705926648280024,1.0636574052721262,1.6707584857940674,-0.45768213272094727,1.6651744842529297,,,,,,
1764808561.317673,,,,,,,0.579605758190155,-0.06383371353149414,-0.03562331199645996,-0.140356183052063,0.9825700521469116,-2.4076874256134033
1764808561.322321,-0.7150277997359633,3.8098224915623664,1.19367845441401,1.6629509925842285,-0.4742821455001831,1.6785084009170532,,,,,,
1764808561.327704,,,,,,,0.6383118629455566,-0.055610597133636475,-0.028643131256103516,-0.03762660175561905,0.7614688277244568,-2.2748827934265137
1764808561.332374,-0.626964608618617,3.2951994830101725,1.0321674575090407,1.6360681056976318,-0.4361061751842499,1.720294713973999,,,,,,
1764808561.337734,,,,,,,0.5378946661949158,-0.08999443054199219,-0.00538790225982666,-0.006336038000881672,0.7308592796325684,-2.1426639556884766
1764808561.342425,-0.8413374271392822,2.6263901213526726,0.7845995678078382,1.637157917022705,-0.36128440499305725,1.748534083366394,,,,,,
1764808561.347764,,,,,,,0.3866880536079407,-0.15878188610076904,0.024952277541160583,-0.038090769201517105,0.7862708568572998,-2.0918450355529785
1764808561.352478,-1.243832186114788,2.02961139216125,0.9202742587972432,1.65901780128479,-0.3100060224533081,1.7218480110168457,,,,,,
1764808561.357795,,,,,,,0.27523988485336304,-0.20741844177246094,0.062373995780944824,-0.1117258071899414,0.9272186756134033,-2.0715794563293457
1764808561.362529,-1.640147964194417,1.8703315153092144,1.5216554402828215,1.6435797214508057,-0.3136654794216156,1.6199638843536377,,,,,,
1764808561.367824,,,,,,,0.23271822929382324,-0.19618308544158936,0.07800926268100739,-0.2760428488254547,1.1738065481185913,-2.0264980792999268
1764808561.372581,-1.7568173643320797,2.5236954705536365,1.6652005723863839,1.6199249029159546,-0.3063913583755493,1.4537487030029297,,,,,,
1764808561.377854,,,,,,,0.2996789216995239,-0.13960140943527222,0.0497281551361084,-0.39941248297691345,1.240608811378479,-1.9887455701828003
1764808561.382634,-1.5018524231821297,3.003161241006851,1.367814247353375,1.687379240989685,-0.2537420094013214,1.3538862466812134,,,,,,
1764808561.387884,,,,,,,0.4066494107246399,-0.1071169376373291,0.01776053011417389,-0.42914295196533203,1.1107349395751953,-1.9745700359344482
1764808561.392686,-1.2731003661751747,2.8467683177679777,1.2823340584665537,1.762481927871704,-0.16896210610866547,1.3543486595153809,,,,,,
1764808561.397914,,,,,,,0.42890751361846924,-0.10345965623855591,0.017881393432617188,-0.4270150661468506,1.0487085580825806,-1.8920379877090454
1764808561.402738,-1.34798931068182,2.380021159112453,1.2450614356487988,1.785110592842102,-0.011607903987169266,1.3823208808898926,,,,,,
1764808561.407944,,,,,,,0.3719980716705322,-0.10597866773605347,0.0035048872232437134,-0.3359546661376953,1.0973871946334839,-1.7787060737609863
1764808561.41279,-1.6839298227757213,1.7704834861129521,1.6083644403122364,1.6483423709869385,0.44837066531181335,1.3885173797607422,,,,,,
1764808561.417976,,,,,,,0.3064318299293518,-0.11215007305145264,-0.021696805953979492,-0.14365263283252716,1.1493481397628784,-1.6984145641326904
1764808561.422842,-1.9827537793964147,1.1236012941032647,1.499582140162587,1.5306130647659302,0.9748132228851318,1.4019075632095337,,,,,,
1764808561.428005,,,,,,,0.2678247094154358,-0.10798269510269165,-0.05978357791900635,0.13755667209625244,1.2741235494613647,-1.6112101078033447
1764808561.432894,-3.542039569893479,0.8931430177003145,1.7409879270374773,1.4685224294662476,1.4761601686477661,1.3255298137664795,,,,,,
1764808561.438035,,,,,,,0.25648587942123413,-0.07561182975769043,-0.09949162602424622,0.56196528673172,1.4731043577194214,-1.501645565032959
1764808561.442947,-2.47700736913681,1.8236632876366377,2.25304386158064,1.3704209327697754,1.8443918228149414,1.251525640487671,,,,,,
1764808561.448066,,,,,,,0.28450727462768555,3.0875205993652344e-05,-0.14539721608161926,0.9860302209854126,1.7037593126296997,-1.3533306121826172
1764808561.452998,-0.30264146908223627,3.466783545640111,1.8851492913432417,1.5971804857254028,1.2888736724853516,1.3272309303283691,,,,,,
1764808561.458095,,,,,,,0.3894765377044678,0.07886290550231934,-0.1668705940246582,1.5081790685653687,1.7339116334915161,-1.2611033916473389
1764808561.46305,-1.4065934753417968,3.6910458900123833,2.8876705292597413,1.5593467950820923,1.2199393510818481,1.159948468208313,,,,,,
1764808561.468125,,,,,,,0.4883589744567871,0.04030048847198486,-0.09962774813175201,1.7322381734848022,1.5038292407989502,-1.2070037126541138
1764808561.473103,-0.8113935397744179,2.814820104843378,2.44795078600049,1.5534672737121582,1.3493902683258057,1.0626864433288574,,,,,,
1764808561.478155,,,,,,,0.49243468046188354,-0.10166007280349731,0.0019567012786865234,1.6779440641403198,1.3938411474227905,-1.1273561716079712
1764808561.483155,-0.5216466235786676,2.1823750189870594,2.0516215639173985,1.589530110359192,1.299756407737732,1.076712965965271,,,,,,
1764808561.488185,,,,,,,0.4478074908256531,-0.25589215755462646,0.0037908852100372314,1.5773842334747314,1.394328236579895,-1.0633596181869507
1764808561.493207,-0.6028828912854194,1.9808593439519404,2.252025039926916,1.571624994277954,1.0234304666519165,1.0983242988586426,,,,,,
1764808561.498215,,,,,,,0.39491647481918335,-0.338040828704834,-0.04887580871582031,1.4188473224639893,1.3938018083572388,-0.9981620907783508
1764808561.503259,-0.9467635487288236,1.760962793573737,1.9570080743737517,1.5560044050216675,0.7853358387947083,1.0206862688064575,,,,,,
1764808561.508245,,,,,,,0.33171898126602173,-0.3407878279685974,-0.03846120834350586,1.1162712574005127,1.3554887771606445,-0.9340590238571167
1764808561.513311,-1.1170382823258638,1.3563883057147264,1.649424326583743,1.5901046991348267,0.6558988690376282,0.8697720170021057,,,,,,
1764808561.518276,,,,,,,0.2767379581928253,-0.36896419525146484,0.018941625952720642,0.8191173076629639,1.3197805881500244,-0.8691070079803467
1764808561.523363,-1.4008996476143598,0.9053419895380734,1.4988205081403254,1.602326512336731,0.5678853392601013,0.6995171904563904,,,,,,
1764808561.528306,,,,,,,0.2345304787158966,-0.41526901721954346,0.035567507147789,0.5489094853401184,1.2943366765975952,-0.8001463413238525
1764808561.533415,-1.570853478693962,0.586221679341793,1.3224208619222044,1.5582932233810425,0.4890962541103363,0.590345561504364,,,,,,
1764808561.538337,,,,,,,0.2089526653289795,-0.3958953619003296,0.010340794920921326,0.3944084048271179,1.2729501724243164,-0.7009548544883728
1764808561.543467,-1.873241849797964,0.40385552593469615,1.1193109034329651,1.467302680015564,0.48877134919166565,0.5251796245574951,,,,,,
1764808561.548366,,,,,,,0.19531536102294922,-0.33229905366897583,-0.030104532837867737,0.39372557401657104,1.260729193687439,-0.5836841464042664
1764808561.553519,-2.2376070768654346,0.3582669101923704,0.9553525133758782,1.3598982095718384,0.5872270464897156,0.4459689259529114,,,,,,
1764808561.558396,,,,,,,0.19065380096435547,-0.26262205839157104,-0.06262099742889404,0.5545454025268555,1.2420878410339355,-0.4476364552974701
1764808561.563571,-2.433781975394487,0.4123182338535785,0.7989953921027481,1.2450393438339233,0.769435703754425,0.3500194847583771,,,,,,
1764808561.568427,,,,,,,0.19582486152648926,-0.2077578902244568,-0.08422377705574036,0.8072514533996582,1.1937663555145264,-0.2996744215488434
1764808561.573624,-2.4793396114766595,0.3663309741824865,0.7341011873878538,1.1290180683135986,0.9739969372749329,0.25691279768943787,,,,,,
1764808561.578456,,,,,,,0.1979978382587433,-0.18114537000656128,-0.09498851001262665,1.061909794807434,1.124585747718811,-0.16912680864334106
1764808561.583676,-2.3640999518811703,0.18113807291686534,0.740702046957612,1.0149916410446167,1.137414574623108,0.1836894303560257,,,,,,
1764808561.588486,,,,,,,0.18574953079223633,-0.19390350580215454,-0.08880555629730225,1.219428300857544,1.0623327493667603,-0.07263996452093124
1764808561.593728,-2.2414584915965796,0.04061141185164451,0.8096627704590559,0.8996483087539673,1.2482588291168213,0.12683840095996857,,,,,,
1764808561.598516,,,,,,,0.16490164399147034,-0.23465728759765625,-0.06395293772220612,1.266730785369873,1.0091899633407593,0.026246339082717896
1764808561.60378,-2.126783480146527,0.03780395321547985,0.7879752547860145,0.789169192314148,1.3145784139633179,0.05922846496105194,,,,,,
1764808561.608547,,,,,,,0.1469000279903412,-0.2783691883087158,-0.035795822739601135,1.2622710466384888,0.9630722999572754,0.12360192090272903
1764808561.613832,-1.936698715186119,0.14912088640928267,0.6244248610079288,0.7040642499923706,1.323284387588501,-0.029672544449567795,,,,,,
1764808561.618577,,,,,,,0.13279518485069275,-0.2941586971282959,-0.022726058959960938,1.2205841541290283,0.9076236486434937,0.19940973818302155
1764808561.623884,-1.6197142479747533,0.2747130131930113,0.5414437954604625,0.6459700465202332,1.2680341005325317,-0.12557856738567352,,,,,,
1764808561.628608,,,,,,,0.12839344143867493,-0.28726935386657715,-0.012907266616821289,1.1818511486053467,0.8519241809844971,0.2732445299625397
1764808561.633936,-1.2505483426272868,0.39459786824584003,0.5253951624572277,0.6012102365493774,1.1520110368728638,-0.20414860546588898,,,,,,
1764808561.638638,,,,,,,0.12412101030349731,-0.2880669832229614,0.001685500144958496,1.1037484407424927,0.808591902256012,0.31972846388816833
1764808561.643988,-0.9927309346556663,0.44719548596739767,0.5340604072108864,0.5657859444618225,0.9996890425682068,-0.2616252303123474,,,,,,
1764808561.648667,,,,,,,0.11777284741401672,-0.29445624351501465,0.029208287596702576,0.941885232925415,0.7772347927093506,0.3502448499202728
1764808561.65404,-0.9208873491942882,0.5002081142306327,0.5377392418541014,0.5454800724983215,0.8275547623634338,-0.3066463768482208,,,,,,
1764808561.658697,,,,,,,0.11382317543029785,-0.2901042699813843,0.04745243489742279,0.7749861478805542,0.7382199764251709,0.40174445509910583
1764808561.664093,-1.0263993955016135,0.568787729460001,0.4717015661925077,0.5267098546028137,0.6591151356697083,-0.3395012617111206,,,,,,
1764808561.668727,,,,,,,0.11702746152877808,-0.2747765779495239,0.04345691204071045,0.6531726121902466,0.696524977684021,0.45229390263557434
1764808561.674145,-1.2387719801157713,0.6122428403049707,0.39157837429419157,0.5047021508216858,0.5363338589668274,-0.38288918137550354,,,,,,
1764808561.678757,,,,,,,0.12371885776519775,-0.24249660968780518,0.03047013282775879,0.5582633018493652,0.6500658988952637,0.49264752864837646
1764808561.684197,-1.3934376411706209,0.518164042159915,0.32373657182008025,0.46747303009033203,0.4730352759361267,-0.4311331510543823,,,,,,
1764808561.688787,,,,,,,0.12741747498512268,-0.20478427410125732,0.021226152777671814,0.5472458004951477,0.5946367383003235,0.552672803401947
1764808561.694249,-1.4587749134778976,0.40948680981993674,0.2884787959560752,0.42386332154273987,0.4631878435611725,-0.4737471342086792,,,,,,
1764808561.698818,,,,,,,0.12808921933174133,-0.17867344617843628,0.006194591522216797,0.6422103643417358,0.5340897440910339,0.6304245591163635
1764808561.704301,-1.4618968448907137,0.35614100407958027,0.28548998940363524,0.37210479378700256,0.4818611145019531,-0.5055737495422363,,,,,,
1764808561.708848,,,,,,,0.11851304769515991,-0.16095328330993652,-0.011252611875534058,0.780587911605835,0.5135373473167419,0.6639060378074646
1764808561.714353,-1.451381296095252,0.40300329301953314,0.35515155465081333,0.30804264545440674,0.5100466012954712,-0.5298962593078613,,,,,,
1764808561.718879,,,,,,,0.10392177104949951,-0.13000905513763428,-0.02144765853881836,0.8906630277633667,0.5154691934585571,0.6911709308624268
1764808561.724405,-1.4286492398053408,0.39029812522530555,0.37711189591586586,0.24256324768066406,0.5350413918495178,-0.54538494348526,,,,,,
1764808561.728909,,,,,,,0.09844449162483215,-0.10527968406677246,-0.018607638776302338,1.0154322385787964,0.4942927956581116,0.7139944434165955
1764808561.734457,-1.393510121884942,0.31636721209585666,0.33396146710589525,0.1918969303369522,0.5483682155609131,-0.5554454326629639,,,,,,
1764808561.738938,,,,,,,0.09436139464378357,-0.09664684534072876,-0.014458298683166504,1.1196668148040771,0.4544772207736969,0.7142796516418457
1764808561.744509,-1.2950287048667668,0.3068020958930254,0.33338848952353,0.13549622893333435,0.5478739738464355,-0.5632439255714417,,,,,,
1764808561.748968,,,,,,,0.08657199144363403,-0.08580571413040161,-0.0049164146184921265,1.1812262535095215,0.4303140938282013,0.7075809836387634
1764808561.754562,-1.1414093379944563,0.3599398118406534,0.23897461420521138,0.08439543843269348,0.5467897057533264,-0.5717049241065979,,,,,,
1764808561.758998,,,,,,,0.07811304926872253,-0.07180958986282349,0.009217493236064911,1.1481066942214966,0.39983874559402466,0.7195292115211487
1764808561.764614,-0.8856360030710697,0.46554713521599767,0.07249065119326115,0.05159381777048111,0.5516747236251831,-0.5788262486457825,,,,,,
1764808561.769028,,,,,,,0.07979428768157959,-0.06230735778808594,0.029865972697734833,1.0679184198379517,0.3504839837551117,0.7270270586013794
1764808561.774666,-0.615754063296318,0.5387240151077508,0.029189854127168655,0.03742710500955582,0.5467764735221863,-0.5841854214668274,,,,,,
1764808561.779058,,,,,,,0.08143192529678345,-0.07305717468261719,0.041923291981220245,0.9810808897018433,0.29800957441329956,0.7333430647850037
1764808561.784718,-0.33863165087401864,0.6100041214674711,-0.017057371654361487,0.03347523882985115,0.5189839601516724,-0.5908387899398804,,,,,,
1764808561.789089,,,,,,,0.07446688413619995,-0.08545970916748047,0.052490368485450745,0.8989724516868591,0.2857148349285126,0.7591320276260376
1764808561.79477,-0.09821370599269866,0.6673240915358066,-0.028265725019574164,0.03889298439025879,0.4674551784992218,-0.5980488061904907,,,,,,
1764808561.799119,,,,,,,0.06495493650436401,-0.09488767385482788,0.04579485207796097,0.8485779762268066,0.2927554249763489,0.7558344006538391
1764808561.804822,0.1970645408451557,0.7182599135249853,0.1542050578057766,0.03711319342255592,0.3895915448665619,-0.6032254695892334,,,,,,
1764808561.80915,,,,,,,0.05762219429016113,-0.0975956916809082,0.030075430870056152,0.8231791257858276,0.2924366593360901,0.6825100779533386
1764808561.814874,0.6336304962486028,0.7279109544456005,0.4299351390868425,0.004955874755978584,0.2804715931415558,-0.5577478408813477,,,,,,
1764808561.81918,,,,,,,0.07116532325744629,-0.05981767177581787,-0.005148772150278091,0.7660461068153381,0.2683848440647125,0.5770416259765625
1764808561.824926,0.7804366759747267,0.6329805079072713,0.5262615700282156,-0.026789536699652672,0.12044466286897659,-0.4754122197628021,,,,,,
1764808561.829209,,,,,,,0.09396064281463623,0.015739083290100098,-0.026462793350219727,0.6387033462524414,0.241282120347023,0.5162158608436584
1764808561.834978,0.716481213414669,0.5734644890993833,0.5091251417882741,-0.056816525757312775,-0.028069520369172096,-0.38559287786483765,,,,,,
1764808561.839239,,,,,,,0.10145395994186401,0.054093778133392334,-0.02565014362335205,0.5101117491722107,0.18830731511116028,0.4997125267982483
1764808561.845031,0.5768757588475942,0.5758388170152903,0.38026363794505597,-0.0876077339053154,-0.10426122695207596,-0.3119322657585144,,,,,,
1764808561.849269,,,,,,,0.09929859638214111,0.04545849561691284,-0.029497746378183365,0.4064186215400696,0.12657630443572998,0.4431195557117462
1764808561.855083,0.46598961828649044,0.6224386556267738,0.2613989197202027,-0.10094565153121948,-0.1244623214006424,-0.24985909461975098,,,,,,
1764808561.859299,,,,,,,0.08438116312026978,0.040002644062042236,-0.028172258287668228,0.2863006293773651,0.07694297283887863,0.36952123045921326
1764808561.865135,0.379933383077383,0.5941781913042068,0.20244111931696532,-0.09674584120512009,-0.11787872016429901,-0.19933652877807617,,,,,,
1764808561.869329,,,,,,,0.06809854507446289,0.03591078519821167,-0.02151656523346901,0.13855832815170288,0.0376506969332695,0.32820573449134827
1764808561.875187,0.35794250054359433,0.4837660979956388,0.2335423600234091,-0.09160177409648895,-0.09534972161054611,-0.16049882769584656,,,,,,
1764808561.87936,,,,,,,0.05255550146102905,0.024991393089294434,-0.021386627107858658,-0.032671306282281876,0.008257653564214706,0.31346985697746277
1764808561.885239,0.383641005423665,0.2927139493077993,0.25727277970090506,-0.09194079786539078,-0.06628185510635376,-0.13067223131656647,,,,,,
1764808561.889391,,,,,,,0.040121495723724365,0.009851574897766113,-0.025132540613412857,-0.2057109922170639,-0.037005431950092316,0.28613677620887756
1764808561.895291,0.4167740442186594,0.09482114094495772,0.3398714218020439,-0.09872448444366455,-0.04822777211666107,-0.1136884093284607,,,,,,
1764808561.89942,,,,,,,0.03378784656524658,-0.0011495351791381836,-0.04389262571930885,-0.32561367750167847,-0.07140841335058212,0.2446822077035904
1764808561.905343,0.4715069204032421,-0.03485387123823166,0.45553076811432835,-0.10678480565547943,-0.06529543548822403,-0.11755239218473434,,,,,,
1764808561.909451,,,,,,,0.027526915073394775,0.005530118942260742,-0.06605350971221924,-0.3835669755935669,-0.08476869761943817,0.23595955967903137
1764808561.915395,0.45647710905373096,-0.15324351929724214,0.5576192697137594,-0.11411143094301224,-0.09721730649471283,-0.1390615999698639,,,,,,
1764808561.91948,,,,,,,0.018765926361083984,0.027040421962738037,-0.0786052942276001,-0.3536892533302307,-0.09985097497701645,0.2263849526643753
1764808561.925447,0.38238662144839763,-0.250591548371315,0.580311578515172,-0.12061113864183426,-0.12708359956741333,-0.17217214405536652,,,,,,
1764808561.92951,,,,,,,0.004904627799987793,0.051909029483795166,-0.08964181691408157,-0.29044821858406067,-0.11118725687265396,0.2015746831893921
1764808561.9355,0.4174567657858133,-0.24087270291149615,0.6407979036599397,-0.12144571542739868,-0.1679525524377823,-0.19016525149345398,,,,,,
1764808561.93954,,,,,,,-0.003500223159790039,0.07432150840759277,-0.09244787693023682,-0.23089194297790527,-0.09781286120414734,0.1759185940027237
1764808561.945552,0.3530944759905338,-0.12932897522449494,0.6469605179429054,-0.12551583349704742,-0.19943591952323914,-0.19382204115390778,,,,,,
1764808561.94957,,,,,,,-0.0029810070991516113,0.08084976673126221,-0.09067810326814651,-0.17241531610488892,-0.0956767350435257,0.17382214963436127
1764808561.955604,0.21503332825601099,-0.032253333351016045,0.49690775751098987,-0.11296891421079636,-0.20654267072677612,-0.1942555457353592,,,,,,
1764808561.9596,,,,,,,0.0035625696182250977,0.06704312562942505,-0.08266914635896683,-0.1405378133058548,-0.11812212318181992,0.1773713380098343
1764808561.965656,0.11817629756927489,-0.04798574001193046,0.3636993105046451,-0.09174112230539322,-0.17987431585788727,-0.19400441646575928,,,,,,
1764808561.969631,,,,,,,0.004030108451843262,0.047029316425323486,-0.07548773288726807,-0.12455965578556061,-0.13521428406238556,0.17103242874145508
1764808561.975708,0.09381225616335868,-0.1396428639680147,0.3937760304689407,-0.07960496842861176,-0.15126049518585205,-0.19149774312973022,,,,,,
1764808561.979661,,,,,,,-0.002213597297668457,0.02175724506378174,-0.06006288528442383,-0.1778525710105896,-0.1485159695148468,0.15138742327690125
1764808561.98576,0.1346364339828491,-0.21634791798591613,0.3997141883462667,-0.07484057545661926,-0.12893041968345642,-0.18460014462471008,,,,,,
1764808561.989691,,,,,,,-0.006046116352081299,0.007955193519592285,-0.04335677996277809,-0.22320672869682312,-0.15841494500637054,0.15085504949092865
1764808561.995812,-0.018337620723247527,-0.28430910905599593,0.32511867382824416,-0.082255057990551,-0.09090856462717056,-0.20445680618286133,,,,,,
1764808561.999722,,,,,,,-0.007554769515991211,-0.00812619924545288,-0.037421707063913345,-0.23496583104133606,-0.1713017225265503,0.17089100182056427
1764808562.005864,-0.035542438024282454,-0.3318243089467287,0.2710900003902614,-0.08617416769266129,-0.04383266717195511,-0.23109054565429688,,,,,,
1764808562.009752,,,,,,,-0.014119625091552734,-0.021548032760620117,-0.030111316591501236,-0.23776987195014954,-0.15671958029270172,0.1685285121202469
1764808562.015916,-0.04192424801588058,-0.3653653440207243,0.22754735739231108,-0.10315009206533432,-0.004188613034784794,-0.26004689931869507,,,,,,
1764808562.019782,,,,,,,-0.02350592613220215,-0.026075661182403564,-0.01951635628938675,-0.24551478028297424,-0.13276231288909912,0.16820167005062103
1764808562.025968,-0.027267946153879164,-0.3170101861745119,0.17797814758121966,-0.11387810111045837,0.017800841480493546,-0.2775513231754303,,,,,,
1764808562.029812,,,,,,,-0.024993300437927246,-0.020182013511657715,-0.008422140032052994,-0.23853036761283875,-0.12301728874444962,0.18299500644207
1764808562.036021,0.03163958536684513,-0.2062795284360647,0.09812719675302504,-0.11896418780088425,0.03197281062602997,-0.2781347930431366,,,,,,
1764808562.039842,,,,,,,-0.021616101264953613,-0.014918863773345947,-0.006920229643583298,-0.21067745983600616,-0.11221390217542648,0.1901412010192871
1764808562.046073,0.163285020840168,-0.09561024549603461,0.04912511930540204,-0.12199646234512329,0.0428725965321064,-0.2549181580543518,,,,,,
1764808562.049872,,,,,,,-0.01556849479675293,-0.006716310977935791,-0.006579641252756119,-0.17743535339832306,-0.10425238311290741,0.19554315507411957
1764808562.056125,0.26862229510247704,-0.02182487831711769,0.005910100826621055,-0.1322339028120041,0.054444510489702225,-0.21042437851428986,,,,,,
1764808562.059903,,,,,,,-0.010248064994812012,0.0061737895011901855,-0.006493926048278809,-0.12256919592618942,-0.09935136884450912,0.20878386497497559
1764808562.066177,0.3045920186281204,-0.037897476717829705,-0.009231792595237494,-0.14889250695705414,0.06590994447469711,-0.1595422774553299,,,,,,
1764808562.069933,,,,,,,-0.005763530731201172,0.017229139804840088,-0.006512157618999481,-0.04829736053943634,-0.09274326264858246,0.21132318675518036
1764808562.076229,0.24943127242028712,-0.0604319646090269,-0.0067849839650094505,-0.17032065987586975,0.06759911775588989,-0.1222243458032608,,,,,,
1764808562.079963,,,,,,,-0.002003908157348633,0.029641807079315186,-0.007187843322753906,0.01597224548459053,-0.09680751711130142,0.2140338122844696
1764808562.086281,0.13580781584978102,-0.024869652840495107,-0.04245324032604694,-0.19374743103981018,0.05430595204234123,-0.10590183734893799,,,,,,
1764808562.089993,,,,,,,0.008657217025756836,0.036006033420562744,-0.014615528285503387,0.06934226304292679,-0.11135556548833847,0.22312025725841522
1764808562.096333,0.01749532468020916,-0.00907353329360485,-0.06968655355796217,-0.20910827815532684,0.03480425849556923,-0.10251578688621521,,,,,,
1764808562.100023,,,,,,,0.01519620418548584,0.02304285764694214,-0.007353067398071289,0.08170708268880844,-0.1426226645708084,0.21524934470653534
1764808562.106385,-0.027416999235749244,-0.019112112227082253,-0.11477540308460593,-0.21109579503536224,0.010606512427330017,-0.09992372989654541,,,,,,
1764808562.110053,,,,,,,0.014170646667480469,-9.226799011230469e-05,0.007117263972759247,0.06172378733754158,-0.16581614315509796,0.1981598436832428
1764808562.116437,-0.0626981559753418,-0.05070435132086277,-0.1415560041129589,-0.21077659726142883,-0.01423526182770729,-0.09802892059087753,,,,,,
1764808562.120083,,,,,,,0.00189971923828125,-0.026983022689819336,0.024719953536987305,-0.002616987330839038,-0.1807740479707718,0.1804303079843521
1764808562.12649,-0.04730594105422496,-0.08352817803621292,-0.2039719821460545,-0.20617732405662537,-0.0319996103644371,-0.10028168559074402,,,,,,
1764808562.130113,,,,,,,-0.013027727603912354,-0.03844565153121948,0.0413515567779541,-0.08254323899745941,-0.18655391037464142,0.17632371187210083
1764808562.136542,-0.07501461671292782,-0.1109083523929119,-0.21328794589340686,-0.19220346212387085,-0.05487100034952164,-0.1059274896979332,,,,,,
1764808562.140143,,,,,,,-0.02138286828994751,-0.038542091846466064,0.04688788205385208,-0.14810945093631744,-0.17586158215999603,0.171172097325325
1764808562.146594,-0.10465046104192734,-0.12663140670359133,-0.219099993173033,-0.18385791778564453,-0.08021070808172226,-0.1147015392780304,,,,,,
1764808562.150173,,,,,,,-0.026355624198913574,-0.029181301593780518,0.04222428426146507,-0.20974431931972504,-0.16910940408706665,0.17042428255081177
1764808562.156646,-0.10771569383144378,-0.1607785909771919,-0.23331235065981745,-0.17832306027412415,-0.10268016904592514,-0.11950678378343582,,,,,,
1764808562.160204,,,,,,,-0.02445399761199951,-0.021871864795684814,0.036072611808776855,-0.2482461780309677,-0.18674778938293457,0.1676483452320099
1764808562.166698,-0.0875982039541006,-0.19471826997995376,-0.24665713153183458,-0.17916488647460938,-0.11732383072376251,-0.12263599783182144,,,,,,
1764808562.170234,,,,,,,-0.015378773212432861,-0.02198922634124756,0.02667868882417679,-0.23303154110908508,-0.1964520812034607,0.16977541148662567
1764808562.17675,-0.11689327202141284,-0.21066344260871409,-0.2078875481545925,-0.1853809952735901,-0.1271866410970688,-0.12313617020845413,,,,,,
1764808562.180264,,,,,,,-0.013566076755523682,-0.01744544506072998,0.015043377876281738,-0.2132520079612732,-0.1946677565574646,0.17797735333442688
1764808562.186802,-0.16681670209765434,-0.22466157282292842,-0.17333397503718734,-0.1979101151227951,-0.13634870946407318,-0.12504592537879944,,,,,,
1764808562.190294,,,,,,,-0.016165316104888916,-0.00624459981918335,0.005447752773761749,-0.15953658521175385,-0.18007975816726685,0.1676837056875229
1764808562.196854,-0.20910101559758185,-0.23045126214027403,-0.09361746424362064,-0.2195049375295639,-0.15059855580329895,-0.12570135295391083,,,,,,
1764808562.200324,,,,,,,-0.02065110206604004,-0.003959774971008301,0.004310972988605499,-0.12762105464935303,-0.17229214310646057,0.15829744935035706
1764808562.206906,-0.20184066920578478,-0.20809037725031374,-0.033829935017973184,-0.2476729303598404,-0.16202671825885773,-0.12605023384094238,,,,,,
1764808562.210354,,,,,,,-0.01403731107711792,-0.004107773303985596,0.012515779584646225,-0.122076615691185,-0.18906286358833313,0.13359582424163818
1764808562.216959,-0.21170564513802528,-0.12015081251263618,-0.12306699222028254,-0.2636789381504059,-0.16752995550632477,-0.12318268418312073,,,,,,
1764808562.220384,,,,,,,-0.0018551945686340332,-0.008130252361297607,0.02913963422179222,-0.19014611840248108,-0.21402786672115326,0.1397264301776886
1764808562.227011,-0.23595395120978355,-0.024279285731911657,-0.25688860268890856,-0.2627614736557007,-0.1679757684469223,-0.12893404066562653,,,,,,
1764808562.230414,,,,,,,0.004507184028625488,-0.022847652435302734,0.04359877109527588,-0.22946582734584808,-0.2505784332752228,0.1574372500181198
1764808562.237063,-0.2004758105933666,0.05422726475000381,-0.3668856854557991,-0.25439736247062683,-0.16610831022262573,-0.14104405045509338,,,,,,
1764808562.240444,,,,,,,0.0038620829582214355,-0.04133671522140503,0.048024654388427734,-0.23257920145988464,-0.2714770436286926,0.15495339035987854
1764808562.247115,-0.1129302136093378,0.11943068154454231,-0.3686706691764295,-0.24326030910015106,-0.17082929611206055,-0.15292121469974518,,,,,,
1764808562.250475,,,,,,,-0.0016532540321350098,-0.032927513122558594,0.053831931203603745,-0.2606217563152313,-0.28011688590049744,0.16136547923088074
1764808562.257167,-0.014395605099201202,0.11409925738871098,-0.3056114248037338,-0.23485007882118225,-0.1950986385345459,-0.1588812917470932,,,,,,
1764808562.260505,,,,,,,-0.0007690787315368652,-0.022670269012451172,0.053385742008686066,-0.2851792275905609,-0.28921130299568176,0.19291122257709503
1764808562.267219,0.032575989434123036,0.08059329362809657,-0.202619836884737,-0.22753970324993134,-0.23919500410556793,-0.1568860560655594,,,,,,
1764808562.270535,,,,,,,0.0026054978370666504,-0.034213900566101074,0.04773211479187012,-0.31691503524780273,-0.3056808412075043,0.19640769064426422
1764808562.277271,0.020003508108854293,0.041918402796983716,-0.11721870458349584,-0.2241007387638092,-0.2908956706523895,-0.1491447538137436,,,,,,
1764808562.280565,,,,,,,0.005928099155426025,-0.040753960609436035,0.03863358125090599,-0.3590417504310608,-0.3198744058609009,0.18101195991039276
1764808562.287323,-0.034493805754184724,0.010662263789772987,-0.04787175824344158,-0.23086009919643402,-0.3485914468765259,-0.14237339794635773,,,,,,
1764808562.290595,,,,,,,0.010325253009796143,-0.032591044902801514,0.025074362754821777,-0.367502361536026,-0.3247474730014801,0.17919115722179413
1764808562.297376,-0.09824468565285205,-0.043704117169976235,-0.022282412826269863,-0.23865048587322235,-0.3955913782119751,-0.1376999318599701,,,,,,
1764808562.300625,,,,,,,0.008649110794067383,-0.02106010913848877,0.019555576145648956,-0.35331863164901733,-0.3274354040622711,0.1858828067779541
1764808562.307428,-0.1854278790652752,-0.08981880261301994,-0.07296060679256916,-0.24257305264472961,-0.41361990571022034,-0.14092448353767395,,,,,,
1764808562.310655,,,,,,,0.0005706548690795898,-0.01511836051940918,0.02585364133119583,-0.33619049191474915,-0.31913432478904724,0.1941913366317749
1764808562.31748,-0.2806897495150566,-0.11258242308497428,-0.08996069530174136,-0.2441389113664627,-0.40650445222854614,-0.14903010427951813,,,,,,
1764808562.320685,,,,,,,-0.00941234827041626,-0.025403916835784912,0.029179468750953674,-0.3361296057701111,-0.308695524930954,0.1958150714635849
1764808562.327532,-0.3644944064050913,-0.14276947155594824,-0.07656988333091139,-0.2479727864265442,-0.3860114514827728,-0.16747115552425385,,,,,,
1764808562.330715,,,,,,,-0.016234636306762695,-0.04421895742416382,0.03451776131987572,-0.3610975444316864,-0.2917990982532501,0.18134984374046326
1764808562.337584,-0.389579163300991,-0.17820494207441806,-0.06418620257601142,-0.24800100922584534,-0.36948779225349426,-0.1906137317419052,,,,,,
1764808562.340746,,,,,,,-0.01887303590774536,-0.049998462200164795,0.03959238529205322,-0.39535510540008545,-0.2873241901397705,0.171824112534523
1764808562.347636,-0.3182119631797075,-0.21396014606654642,-0.0759333389930427,-0.2445138543844223,-0.3601694107055664,-0.21099276840686798,,,,,,
1764808562.350776,,,,,,,-0.018773257732391357,-0.02826637029647827,0.03446172922849655,-0.3937239348888397,-0.28002554178237915,0.17836137115955353
1764808562.357688,-0.218906954818964,-0.21923428707718848,-0.09475319027528166,-0.23607540130615234,-0.3516191840171814,-0.2164527326822281,,,,,,
1764808562.360806,,,,,,,-0.023622214794158936,-0.0031012296676635742,0.02798640727996826,-0.35368627309799194,-0.2537081837654114,0.1817011684179306
1764808562.36774,-0.11133622241616248,-0.12143792971372604,-0.11948606499359012,-0.22126954793930054,-0.3290960192680359,-0.20405332744121552,,,,,,
1764808562.370836,,,,,,,-0.032802462577819824,0.013033092021942139,0.026529677212238312,-0.32017916440963745,-0.22067618370056152,0.1741495132446289
1764808562.377792,-0.035597383081912994,-0.07575754403471946,-0.16031389607489108,-0.20487508177757263,-0.29377660155296326,-0.19230902194976807,,,,,,
1764808562.380866,,,,,,,-0.03815186023712158,0.017888545989990234,0.027866840362548828,-0.2976677417755127,-0.18430380523204803,0.17955127358436584
1764808562.387845,0.033084523478150364,-0.05958499239087105,-0.17470029495432973,-0.1803087592124939,-0.2562321424484253,-0.17781449854373932,,,,,,
1764808562.390896,,,,,,,-0.03569906949996948,0.011298954486846924,0.02802933007478714,-0.27616432309150696,-0.16376256942749023,0.1836775690317154
1764808562.397897,0.05620879395604133,-0.14490005384385585,-0.1296251816920936,-0.15728327631950378,-0.2232690155506134,-0.17207501828670502,,,,,,
1764808562.400926,,,,,,,-0.03112107515335083,0.010250091552734375,0.026433952152729034,-0.2558761239051819,-0.1602085828781128,0.16790208220481873
1764808562.407949,0.09083820878863334,-0.3038964375793934,-0.054269496456533665,-0.1425836980342865,-0.20335309207439423,-0.17267689108848572,,,,,,
1764808562.410956,,,,,,,-0.033664584159851074,0.01616281270980835,0.016111023724079132,-0.24503228068351746,-0.147247776389122,0.15039366483688354
1764808562.418001,0.17240882301628588,-0.40144904931485653,-0.03158522483110428,-0.13832004368305206,-0.19856798648834229,-0.17721989750862122,,,,,,
1764808562.420986,,,,,,,-0.04243326187133789,0.029169321060180664,0.01003003865480423,-0.22867664694786072,-0.12532463669776917,0.1362271010875702
1764808562.428053,0.3232704156130552,-0.40429391735196113,-0.0916284823834896,-0.12586763501167297,-0.19550801813602448,-0.1759548932313919,,,,,,
1764808562.431017,,,,,,,-0.05380183458328247,0.048534274101257324,0.007456175982952118,-0.18973112106323242,-0.10561325401067734,0.11325760930776596
1764808562.438105,0.5184405210137367,-0.36131519184708594,-0.12266849442198872,-0.10683120042085648,-0.19096346199512482,-0.1527019739151001,,,,,,
1764808562.441047,,,,,,,-0.06132650375366211,0.07280933856964111,0.001554839313030243,-0.1568211317062378,-0.07639171928167343,0.08614543080329895
1764808562.448157,0.6546452272266149,-0.34490941596925256,-0.13976853617429733,-0.0813351571559906,-0.1803172081708908,-0.11644143611192703,,,,,,
1764808562.451077,,,,,,,-0.06768220663070679,0.08830642700195312,0.0025324746966362,-0.12140429019927979,-0.04555550962686539,0.05269958823919296
1764808562.458209,0.6993541375249623,-0.30449089634120463,-0.17215864764750002,-0.054270874708890915,-0.16452041268348694,-0.07665936648845673,,,,,,
1764808562.461107,,,,,,,-0.07007718086242676,0.09336215257644653,0.004294872283935547,-0.09110279381275177,-0.02120543085038662,0.02588348463177681
1764808562.468261,0.6612772125869989,-0.2679799055457115,-0.24632804570794103,-0.026425397023558617,-0.13384826481342316,-0.04508759081363678,,,,,,
1764808562.471137,,,,,,,-0.06599253416061401,0.10372352600097656,0.003281831741333008,-0.04788101837038994,-0.005726604722440243,-0.0008666364010423422
1764808562.478314,0.6466214952468872,-0.26402152330875395,-0.31774493018984795,0.0018790860194712877,-0.09032339602708817,-0.016836708411574364,,,,,,
1764808562.481167,,,,,,,-0.06061166524887085,0.11477041244506836,-0.0001932382583618164,0.01203911378979683,-0.002237065462395549,-0.017200535163283348
1764808562.488366,0.6735545103579759,-0.31448914326429367,-0.3563884029693901,0.03334460034966469,-0.03746923431754112,0.011116895824670792,,,,,,
1764808562.491197,,,,,,,-0.0606151819229126,0.12385106086730957,-0.003522522747516632,0.11613648384809494,0.0011238438310101628,-0.038126323372125626
1764808562.498418,0.810850518938899,-0.3802788355141878,-0.38667818116247654,0.05719512328505516,0.020478978753089905,0.044533900916576385,,,,,,
1764808562.501227,,,,,,,-0.06869572401046753,0.14270198345184326,-0.003580808639526367,0.23556075990200043,0.01351739652454853,-0.060521576553583145
1764808562.50847,1.0083715713799,-0.4347323102355003,-0.4627038746140897,0.091824471950531,0.08395808935165405,0.08324961364269257,,,,,,
1764808562.511257,,,,,,,-0.0798565149307251,0.17482149600982666,-0.011384129524230957,0.40720441937446594,0.024791356176137924,-0.06265184283256531
1764808562.518522,1.2179536484926938,-0.5468003540575505,-0.48231706823110576,0.12282288074493408,0.1420917958021164,0.1307326853275299,,,,,,
1764808562.521288,,,,,,,-0.091544508934021,0.2000734806060791,-0.02215205878019333,0.5719791054725647,0.05480624735355377,-0.07333643734455109
1764808562.528574,1.3671493537038564,-0.7210089199721813,-0.40955914440378544,0.13855472207069397,0.18481290340423584,0.16903719305992126,,,,,,
1764808562.531318,,,,,,,-0.11010575294494629,0.2111109495162964,-0.021315447986125946,0.7130800485610962,0.10909505188465118,-0.1042669266462326
1764808562.538626,1.455034557905793,-0.7374544433385133,-0.42464404694139957,0.1455874741077423,0.2103072553873062,0.1932506412267685,,,,,,
1764808562.541348,,,,,,,-0.12196266651153564,0.20950764417648315,-0.013883832842111588,0.8054569363594055,0.1588125377893448,-0.1339617818593979
1764808562.548678,1.5098989515155552,-0.6539145748645067,-0.5482213267713785,0.1688603013753891,0.24061404168605804,0.20274613797664642,,,,,,
1764808562.551378,,,,,,,-0.12234431505203247,0.20132678747177124,0.0028214454650878906,0.8562729358673096,0.19636790454387665,-0.17157121002674103
1764808562.558731,1.597804613983631,-0.4966033677369356,-0.7157850478440523,0.21981137990951538,0.28388604521751404,0.2059578150510788,,,,,,
1764808562.561408,,,,,,,-0.12198746204376221,0.19383132457733154,0.025632262229919434,0.8366414308547974,0.22084954380989075,-0.22812435030937195
1764808562.568783,1.767134175685048,-0.35953298460543154,-0.8513700147233902,0.2980484068393707,0.3242691457271576,0.21849863231182098,,,,,,
1764808562.571438,,,,,,,-0.124442458152771,0.20249778032302856,0.0459599532186985,0.7659422159194946,0.2405572086572647,-0.26452895998954773
1764808562.578835,1.9140747954457997,-0.3537701832950115,-0.8933486232750117,0.38570618629455566,0.3539707064628601,0.2569500803947449,,,,,,
1764808562.581468,,,,,,,-0.13111436367034912,0.20693153142929077,0.05407046899199486,0.6786115169525146,0.2763325273990631,-0.3239637315273285
1764808562.588887,2.030519739177823,-0.4285194270700216,-0.8691236980788409,0.4607522189617157,0.38060683012008667,0.3187873661518097,,,,,,
1764808562.591498,,,,,,,-0.14592039585113525,0.22336149215698242,0.055733561515808105,0.5780556201934814,0.328641802072525,-0.41403210163116455
1764808562.598939,2.089213335686922,-0.5355617516845464,-0.858393191358447,0.5141453146934509,0.41429075598716736,0.38601192831993103,,,,,,
1764808562.601528,,,,,,,-0.15019875764846802,0.2657979726791382,0.03372478485107422,0.5534397959709167,0.3724289536476135,-0.4945407807826996
1764808562.608991,2.137600642237067,-0.6133621997237205,-0.8752244991719722,0.5491565465927124,0.4602348208427429,0.4474065899848938,,,,,,
1764808562.611559,,,,,,,-0.14259761571884155,0.3058406114578247,0.007460590451955795,0.587186336517334,0.39661845564842224,-0.5796396732330322
1764808562.619043,2.2759464521318673,-0.6309475407749414,-0.9719476743459701,0.5822691321372986,0.5240710377693176,0.4985462427139282,,,,,,
1764808562.621589,,,,,,,-0.13517159223556519,0.34102368354797363,-0.01108575239777565,0.6066447496414185,0.39625173807144165,-0.6779584288597107
1764808562.629095,2.5079624793708324,-0.6188946994096041,-1.0373835847221313,0.6133207678794861,0.6025709509849548,0.5493204593658447,,,,,,
1764808562.631619,,,,,,,-0.13237088918685913,0.36775481700897217,-0.015346648171544075,0.5912567377090454,0.41475990414619446,-0.7562904953956604
1764808562.639147,2.841682977327704,-0.6300578984588384,-1.022854124110192,0.6468819975852966,0.6652214527130127,0.6215212941169739,,,,,,
1764808562.641649,,,,,,,-0.13360601663589478,0.37870335578918457,-0.018285159021615982,0.580531120300293,0.43262413144111633,-0.8284303545951843
1764808562.6492,3.137976538687944,-0.6284715060502291,-0.9549211362212896,0.6851745247840881,0.7000779509544373,0.7371059656143188,,,,,,
1764808562.651679,,,,,,,-0.13384389877319336,0.3785059452056885,-0.028738142922520638,0.6017338633537292,0.43927082419395447,-0.946501612663269
1764808562.659252,3.2508915547281503,-0.5672293941020965,-0.8847522059738635,0.7152470350265503,0.7050256133079529,0.8771629333496094,,,,,,
1764808562.661709,,,,,,,-0.13133633136749268,0.39861422777175903,-0.04154026508331299,0.6347998976707458,0.4470461905002594,-1.073728084564209
1764808562.669304,3.1505051808714866,-0.48457040011584757,-0.8979805208593606,0.7428805232048035,0.6946834921836853,1.0168606042861938,,,,,,
1764808562.671739,,,,,,,-0.12088948488235474,0.4344579577445984,-0.04874098300933838,0.7035586833953857,0.44271165132522583,-1.1812981367111206
1764808562.679356,3.030366643318534,-0.440475237801671,-0.9109668436825274,0.7773421406745911,0.6806647181510925,1.1364692449569702,,,,,,
1764808562.681769,,,,,,,-0.10550802946090698,0.4498986601829529,-0.04758036136627197,0.7728907465934753,0.43695148825645447,-1.2858705520629883
1764808562.689408,2.914019314742088,-0.3809621416032314,-0.9318756300680339,0.8135866522789001,0.6685811877250671,1.2504698038101196,,,,,,
1764808562.691799,,,,,,,-0.09356993436813354,0.43390125036239624,-0.03122115135192871,0.8095850944519043,0.4103800654411316,-1.3876667022705078
1764808562.69946,2.750608037173748,-0.41922319093644617,-1.0308901310496033,0.8519644141197205,0.6715850830078125,1.3512641191482544,,,,,,
1764808562.70183,,,,,,,-0.08852332830429077,0.3910773992538452,-0.01266491413116455,0.8031468391418457,0.3775254487991333,-1.4795750379562378
1764808562.709512,2.571753106757998,-0.5153676894396543,-1.1187626219004392,0.8785052299499512,0.6960899233818054,1.4246917963027954,,,,,,
1764808562.71186,,,,,,,-0.09149402379989624,0.3501986265182495,0.00293886661529541,0.7027847766876221,0.3713405132293701,-1.5722836256027222
1764808562.719564,2.493361707088351,-0.4850906245976686,-1.0727531503975392,0.9043278694152832,0.7147031426429749,1.4754801988601685,,,,,,
1764808562.72189,,,,,,,-0.08960980176925659,0.31888705492019653,0.01860368251800537,0.4875774085521698,0.3861554265022278,-1.6741045713424683
1764808562.729617,2.582393158715963,-0.28793022216260433,-1.0030068294763566,0.9436310529708862,0.7057530879974365,1.528181791305542,,,,,,
1764808562.73192,,,,,,,-0.08033668994903564,0.2909574508666992,0.04541671276092529,0.19642014801502228,0.40133917331695557,-1.796066403388977
1764808562.739668,2.6609166603326795,0.02464168930351734,-0.9696879127204417,1.0058705806732178,0.656960666179657,1.6098533868789673,,,,,,
1764808562.74195,,,,,,,-0.06400087475776672,0.2729242444038391,0.06878381967544556,-0.06805161386728287,0.40839093923568726,-1.9224721193313599
1764808562.749721,2.6379940499067307,0.3493219717144966,-1.0281320645131171,1.0716549158096313,0.5791225433349609,1.7099637985229492,,,,,,
1764808562.75198,,,,,,,-0.04414200782775879,0.2846255302429199,0.06924939155578613,-0.2178560197353363,0.4028569161891937,-2.0383617877960205
1764808562.759772,2.5859640029400586,0.45727147430181503,-1.1412341275580227,1.1267982721328735,0.5026921629905701,1.80452299118042,,,,,,
1764808562.76201,,,,,,,-0.018820255994796753,0.32368916273117065,0.050591230392456055,-0.19667880237102509,0.4019477069377899,-2.132383108139038
1764808562.769825,2.596925541937351,0.38226796350479125,-1.202896949136257,1.1515145301818848,0.45657071471214294,1.8784801959991455,,,,,,
1764808562.77204,,,,,,,0.002515852451324463,0.37525588274002075,0.03456401824951172,-0.048602525144815445,0.4114844799041748,-2.1981539726257324
1764808562.779877,2.624849906173348,0.23978081602156162,-1.2650817487619817,1.1545135974884033,0.4605087339878082,1.9426316022872925,,,,,,
1764808562.78207,,,,,,,0.01579892635345459,0.4163821339607239,0.027729392051696777,0.10340781509876251,0.4161948263645172,-2.241563558578491
1764808562.789929,2.5856384242475032,0.1414735865265131,-1.2443138321518896,1.1446516513824463,0.5000628232955933,2.01375412940979,,,,,,
1764808562.7921,,,,,,,0.022728949785232544,0.41405630111694336,0.029837727546691895,0.2371155470609665,0.42501652240753174,-2.270334005355835
1764808562.799981,2.4447370846509933,0.1802116057217121,-1.179236818215996,1.119484543800354,0.5316624045372009,2.081829071044922,,,,,,
1764808562.802131,,,,,,,0.023766785860061646,0.3663645386695862,0.03881847858428955,0.26299849152565,0.44520649313926697,-2.332383871078491
1764808562.810033,2.3085785556674003,0.33170448195934293,-1.1510728000052273,1.1089855432510376,0.5241877436637878,2.133193016052246,,,,,,
1764808562.812161,,,,,,,0.027599632740020752,0.3352299928665161,0.062375545501708984,0.21790876984596252,0.4807508885860443,-2.4003727436065674
1764808562.820086,2.295309908771515,0.6688520317554474,-1.1464857644759119,1.1268501281738281,0.47942519187927246,2.1936702728271484,,,,,,
1764808562.822191,,,,,,,0.04196697473526001,0.32723063230514526,0.08716392517089844,0.20673541724681854,0.501512348651886,-2.469722032546997
1764808562.830138,2.3560832341641187,1.0674223107635974,-1.173583176368475,1.171645998954773,0.40583062171936035,2.2648491859436035,,,,,,
1764808562.832221,,,,,,,0.06428751349449158,0.33862459659576416,0.11099731922149658,0.2073572725057602,0.5093218088150024,-2.572718858718872
1764808562.84019,2.436113633212447,1.3785814328223467,-1.255357058083266,1.2452754974365234,0.34491053223609924,2.349207878112793,,,,,,
1764808562.842251,,,,,,,0.08565989136695862,0.36712872982025146,0.13349652290344238,0.2110666036605835,0.5320596098899841,-2.6857640743255615
1764808562.850241,2.484577512130141,1.672925321419537,-1.2494471033871173,1.3116611242294312,0.2979925572872162,2.444213628768921,,,,,,
1764808562.852281,,,,,,,0.10985691845417023,0.399147093296051,0.14410758018493652,0.1922716200351715,0.578316330909729,-2.779287099838257
1764808562.860294,2.459590370389819,1.8295795259431002,-1.3009019808143376,1.3670520782470703,0.2832407057285309,2.5434672832489014,,,,,,
1764808562.862311,,,,,,,0.1404036432504654,0.419966459274292,0.1454765796661377,0.15888415277004242,0.6121757626533508,-2.8830697536468506
1764808562.870345,2.4155776256620882,1.7526909320518373,-1.345026223092526,1.4245854616165161,0.29091671109199524,2.6487812995910645,,,,,,
1764808562.872341,,,,,,,0.16341856122016907,0.41251426935195923,0.14847052097320557,0.128523051738739,0.6191138625144958,-2.9936764240264893
1764808562.880398,2.2477754196584225,1.5363409682393072,-1.1816102693490684,1.4672311544418335,0.29894521832466125,2.7660725116729736,,,,,,
1764808562.882371,,,,,,,0.17299917340278625,0.39291906356811523,0.14230358600616455,0.11592404544353485,0.6429717540740967,-3.0828042030334473
1764808562.89045,1.9787574032366275,1.3891361445844173,-1.1553911015957594,1.4891550540924072,0.3193490505218506,2.8531575202941895,,,,,,
1764808562.892402,,,,,,,0.1673266589641571,0.37373876571655273,0.14440464973449707,0.07061249017715454,0.6951140761375427,-3.1445846557617188
1764808562.900503,1.8634090225696562,1.435972714561224,-1.3679406502120195,1.5159783363342285,0.38134628534317017,2.884739637374878,,,,,,
1764808562.902432,,,,,,,0.16320553421974182,0.3734288215637207,0.16781854629516602,0.00663603562861681,0.7625924348831177,-3.2057597637176514
1764808562.910555,1.9899059892386197,1.6504975087732077,-1.461497031918168,1.564189076423645,0.4647437036037445,2.905319929122925,,,,,,
1764808562.912462,,,,,,,0.16985812783241272,0.3779030442237854,0.18925440311431885,-0.08367840945720673,0.8455584049224854,-3.249082326889038
1764808562.920607,2.218158280029893,1.976069917718321,-1.3995207604765891,1.6361509561538696,0.5183876752853394,2.9449732303619385,,,,,,
1764808562.922492,,,,,,,0.18774017691612244,0.36064738035202026,0.21695256233215332,-0.17658649384975433,0.9240431189537048,-3.3257243633270264
1764808562.930659,2.452607671895623,2.341323471927643,-1.3182353929311037,1.728696584701538,0.5367410778999329,3.0220420360565186,,,,,,
1764808562.932522,,,,,,,0.2034733146429062,0.36109769344329834,0.2506364583969116,-0.28169479966163635,1.0109686851501465,-3.389535427093506
1764808562.940711,2.5217951898902653,2.5631509903684258,-1.1354749795094132,1.8158690929412842,0.5194643139839172,3.1356041431427,,,,,,
1764808562.942552,,,,,,,0.2323579490184784,0.3963298201560974,0.22684574127197266,-0.20249806344509125,1.088795781135559,-3.4340596199035645
1764808562.950763,2.381614565783739,2.4971742511138317,-0.9368699312239884,1.8676990270614624,0.504091203212738,3.2568459510803223,,,,,,
1764808562.952582,,,,,,,0.25485068559646606,0.42810356616973877,0.17981672286987305,0.01177720446139574,1.1605589389801025,-3.5062646865844727
1764808562.960814,2.0819261012881993,2.134122444732487,-0.907206029844284,1.872814655303955,0.5209789872169495,3.3476693630218506,,,,,,
1764808562.962612,,,,,,,0.2645145654678345,0.4696974754333496,0.15187299251556396,0.21003365516662598,1.2389533519744873,-3.571881055831909
1764808562.970867,1.8460989913284778,1.7433190003335475,-1.1246820750772952,1.8513092994689941,0.5865247249603271,3.385601282119751,,,,,,
1764808562.972642,,,,,,,0.26975518465042114,0.4771062731742859,0.15542399883270264,0.39100852608680725,1.30817449092865,-3.5915534496307373
1764808562.98092,1.829953327691555,1.664659889638424,-1.3729028026640415,1.8256206512451172,0.6862515211105347,3.389239549636841,,,,,,
1764808562.982673,,,,,,,0.27197620272636414,0.4397655725479126,0.1940011978149414,0.4739132821559906,1.3809914588928223,-3.5875322818756104
1764808562.990972,1.949759272289276,2.0092617009632288,-1.4781811863459646,1.809901237487793,0.7550129890441895,3.4027838706970215,,,,,,
1764808562.992703,,,,,,,0.2890298068523407,0.3926575183868408,0.231636643409729,0.47084611654281616,1.4410358667373657,-3.6135756969451904
1764808563.001024,2.0382658232599495,2.585558637009561,-1.485802475004643,1.832576036453247,0.7831353545188904,3.4432883262634277,,,,,,
1764808563.002733,,,,,,,0.31764426827430725,0.3479083180427551,0.2728787660598755,0.4237068295478821,1.4882416725158691,-3.642265558242798
1764808563.011076,1.963530608010292,3.070171122701466,-1.4067558262966573,1.886813759803772,0.7753488421440125,3.5167670249938965,,,,,,
1764808563.012762,,,,,,,0.3486233651638031,0.3193330764770508,0.2980479598045349,0.39863821864128113,1.5186022520065308,-3.6532108783721924
1764808563.021127,1.7357149550706148,3.18569106054306,-1.2807182938329875,1.9678740501403809,0.7492823600769043,3.5931406021118164,,,,,,
1764808563.022792,,,,,,,0.36773908138275146,0.30713170766830444,0.29526442289352417,0.39360323548316956,1.5528161525726318,-3.682769298553467
1764808563.031179,1.5262608882516622,3.1220465636283157,-1.1252712731420993,2.0351319313049316,0.7383500933647156,3.6341938972473145,,,,,,
1764808563.032822,,,,,,,0.3597768545150757,0.31486189365386963,0.3108136057853699,0.40254053473472595,1.6601639986038208,-3.6964268684387207
1764808563.041231,1.368880707541108,3.136260674680769,-1.0032293861858546,2.0613558292388916,0.7553356289863586,3.6414990425109863,,,,,,
1764808563.042852,,,,,,,0.3618033230304718,0.32932937145233154,0.30329185724258423,0.45640674233436584,1.7951010465621948,-3.706423282623291
1764808563.051283,1.3347200792640448,3.2245980065643787,-0.9443979155760258,2.057708501815796,0.7478688955307007,3.6351284980773926,,,,,,
1764808563.052882,,,,,,,0.392018586397171,0.3381013870239258,0.2916489243507385,0.532042384147644,1.8870737552642822,-3.7291619777679443
1764808563.061335,1.238908173716068,3.356701414938271,-1.0594400798380375,2.0433783531188965,0.7148250341415405,3.6567370891571045,,,,,,
1764808563.062912,,,,,,,0.4451940655708313,0.3390929102897644,0.2774289846420288,0.6352565288543701,1.9162250757217407,-3.7403273582458496
1764808563.071388,0.9871803147912025,3.4380034413576124,-1.165059678173065,2.0270144939422607,0.6862030029296875,3.6947505474090576,,,,,,
1764808563.072942,,,,,,,0.49563416838645935,0.3131484389305115,0.2655458450317383,0.7226875424385071,1.8889158964157104,-3.7416493892669678
1764808563.08144,0.6810843213409185,3.3959453378289934,-1.207646700946614,2.012255907058716,0.6988615989685059,3.7170867919921875,,,,,,
1764808563.082973,,,,,,,0.5105342864990234,0.2726649045944214,0.2742627263069153,0.7578457593917847,1.874306321144104,-3.732041358947754
1764808563.091492,0.4792676175326109,3.4143145227342844,-1.2334843951016663,2.004566192626953,0.7386598587036133,3.727170944213867,,,,,,
1764808563.093003,,,,,,,0.49706536531448364,0.23467206954956055,0.2990119457244873,0.8086602091789246,1.9033327102661133,-3.7028019428253174
1764808563.101544,0.347094358792901,3.6069004568606613,-1.2332692910462617,2.000396490097046,0.7784460186958313,3.732527256011963,,,,,,
1764808563.103033,,,,,,,0.48245882987976074,0.2161635160446167,0.3289383053779602,0.8508161902427673,1.9540709257125854,-3.698519706726074
1764808563.111596,0.30411972494125367,3.8266725040763614,-1.2780080119609831,1.9919781684875488,0.8013617396354675,3.749091625213623,,,,,,
1764808563.113063,,,,,,,0.49047887325286865,0.2418121099472046,0.3383328318595886,0.9319307804107666,1.997498869895935,-3.6730992794036865
1764808563.121649,0.13930091866254807,3.817555423901975,-1.3134674478769301,1.9762355089187622,0.8124619722366333,3.768958568572998,,,,,,
1764808563.123093,,,,,,,0.5161008238792419,0.23664408922195435,0.310918390750885,1.0927389860153198,1.9821771383285522,-3.6744325160980225
1764808563.131701,-0.08771043215692043,3.6392888147681948,-1.2101070266455412,1.938355803489685,0.8112478256225586,3.7697532176971436,,,,,,
1764808563.133123,,,,,,,0.5311097502708435,0.20350247621536255,0.30088067054748535,1.1639302968978882,1.9675254821777344,-3.6883468627929688
1764808563.141752,-0.2677349908739328,3.4783185006111856,-1.1912310612618922,1.8955597877502441,0.8174851536750793,3.7502660751342773,,,,,,
1764808563.143153,,,,,,,0.5353667140007019,0.1786966323852539,0.31129127740859985,1.2004245519638062,1.9678174257278442,-3.6607863903045654
1764808563.151805,-0.3150269034028053,3.50138081176877,-1.2139654556393622,1.8693960905075073,0.8342524170875549,3.7173104286193848,,,,,,
1764808563.153183,,,,,,,0.5354459881782532,0.13647574186325073,0.3259751796722412,1.1637110710144043,1.957026720046997,-3.6470608711242676
1764808563.161857,-0.31723464258015155,3.7688159429132937,-1.2011398763358592,1.8519353866577148,0.8382227420806885,3.6830568313598633,,,,,,
1764808563.163213,,,,,,,0.5371252298355103,0.10743910074234009,0.34389469027519226,1.0721094608306885,1.9840466976165771,-3.6259257793426514
1764808563.171909,-0.29906945581436156,4.089043337568641,-1.2132969087280332,1.848395586013794,0.8109679222106934,3.6542720794677734,,,,,,
1764808563.173244,,,,,,,0.5519251823425293,0.07862716913223267,0.3597366511821747,0.9535404443740845,1.9809552431106567,-3.5766708850860596
1764808563.181962,-0.30197745221555233,4.247037850785255,-1.2856652487158775,1.8584728240966797,0.7695601582527161,3.6209774017333984,,,,,,
1764808563.183274,,,,,,,0.5684663653373718,0.05675870180130005,0.3550202250480652,0.8773357272148132,1.9666780233383179,-3.511812686920166
1764808563.192014,-0.4076397206485271,4.1978287064582105,-1.2068413759130985,1.8652979135513306,0.7203862071037292,3.576340436935425,,,,,,
1764808563.193304,,,,,,,0.5663121938705444,0.025930941104888916,0.3435261845588684,0.8106877207756042,1.9601666927337646,-3.473931074142456
1764808563.202065,-0.5068330853283405,3.9794700331717725,-1.0300142249979078,1.8621231317520142,0.6415894031524658,3.508707284927368,,,,,,
1764808563.203334,,,,,,,0.5509969592094421,0.007348954677581787,0.3459146022796631,0.7453373670578003,1.9805680513381958,-3.409078359603882
1764808563.212117,-0.6136684891939163,3.7855683402717113,-1.0680791672371328,1.8575869798660278,0.5606729984283447,3.4193971157073975,,,,,,
1764808563.213364,,,,,,,0.5359100699424744,-0.002030313014984131,0.3417014479637146,0.7242459058761597,1.9781060218811035,-3.3537497520446777
1764808563.222169,-0.7103291205257177,3.78040408937633,-1.0913676883660257,1.8414572477340698,0.4887576997280121,3.329801321029663,,,,,,
1764808563.223394,,,,,,,0.5256562232971191,0.00952652096748352,0.31988227367401123,0.727695643901825,1.9819073677062988,-3.2840728759765625
1764808563.232223,-0.8521645261019468,3.8418554601609705,-1.0267933632552624,1.7979545593261719,0.44703713059425354,3.245965003967285,,,,,,
1764808563.233424,,,,,,,0.5290218591690063,0.014146089553833008,0.2825413942337036,0.7901380062103271,1.9850362539291382,-3.1728179454803467
1764808563.242275,-1.0269406627714632,3.771517018565535,-0.8970485007062554,1.737066388130188,0.4320559799671173,3.1704413890838623,,,,,,
1764808563.243454,,,,,,,0.5345714688301086,-0.02060648798942566,0.25048017501831055,0.8682107925415039,1.9486383199691772,-3.0847387313842773
1764808563.252326,-1.2474994764506817,3.6087031223684547,-0.7948571232542395,1.6596789360046387,0.4470173418521881,3.083268880844116,,,,,,
1764808563.253484,,,,,,,0.5349432826042175,-0.04731708765029907,0.23981314897537231,0.8385082483291626,1.9037725925445557,-2.994795560836792
1764808563.262378,-1.4496014269411563,3.566571953603625,-0.7008180725976825,1.577093482017517,0.4835628271102905,2.992076873779297,,,,,,
1764808563.263514,,,,,,,0.5362025499343872,-0.03783518075942993,0.21435856819152832,0.8002679944038391,1.865787148475647,-2.849259853363037
1764808563.27243,-1.5731968269497156,3.487681956762075,-0.6725678374081849,1.5039212703704834,0.5108247995376587,2.904111385345459,,,,,,
1764808563.273545,,,,,,,0.5436931252479553,-0.06754940748214722,0.18871039152145386,0.7825627326965332,1.7766034603118896,-2.746443510055542
1764808563.282482,-1.690901999875903,3.353482160630822,-0.6473851730957627,1.4459224939346313,0.5052207112312317,2.800387382507324,,,,,,
1764808563.283575,,,,,,,0.5298001766204834,-0.13844501972198486,0.19666451215744019,0.6514804363250732,1.6899007558822632,-2.6765401363372803
1764808563.292534,-1.7975214229032397,3.2069623966306446,-0.5484384766533971,1.4052306413650513,0.44139355421066284,2.6710009574890137,,,,,,
1764808563.293605,,,,,,,0.5011991858482361,-0.20754432678222656,0.2032681703567505,0.4932660162448883,1.6260707378387451,-2.559279203414917
1764808563.302587,-1.8018328563615678,3.0795506532043215,-0.4909691612422466,1.3730130195617676,0.3667958080768585,2.5195839405059814,,,,,,
1764808563.303635,,,,,,,0.4672207832336426,-0.25050508975982666,0.19637858867645264,0.34992098808288574,1.5759342908859253,-2.435990810394287
1764808563.312639,-1.8025041797518728,3.0138211667090653,-0.25487521703988314,1.3153369426727295,0.30485838651657104,2.3648898601531982,,,,,,
1764808563.313665,,,,,,,0.44107651710510254,-0.2524144947528839,0.16530895233154297,0.2893016040325165,1.565403938293457,-2.2882659435272217
1764808563.322691,-1.856490036961436,2.878881365865469,-0.07299480132311582,1.2309767007827759,0.2440226823091507,2.2163453102111816,,,,,,
1764808563.323695,,,,,,,0.4367520809173584,-0.24057063460350037,0.10472977161407471,0.2901868224143982,1.493269443511963,-2.135836124420166
1764808563.332743,-1.9659335774987934,2.706084420314431,-0.013795008857548237,1.11671781539917,0.1946873664855957,2.0586321353912354,,,,,,
1764808563.333725,,,,,,,0.4566989541053772,-0.22729122638702393,0.07717090845108032,0.2726916968822479,1.3781101703643799,-1.9955053329467773
1764808563.342795,-2.115571181258559,2.6023651026427745,-0.07337883220463991,1.0019011497497559,0.18417681753635406,1.8849122524261475,,,,,,
1764808563.343755,,,,,,,0.47532379627227783,-0.24103441834449768,0.06610006093978882,0.22954832017421722,1.2539663314819336,-1.8357990980148315
1764808563.352847,-2.206837552331388,2.7192501913577316,-0.15522972467839716,0.9022823572158813,0.1984012871980667,1.710420846939087,,,,,,
1764808563.353785,,,,,,,0.487351655960083,-0.24332033097743988,0.07741212844848633,0.11022644490003586,1.1088727712631226,-1.6763942241668701
1764808563.3629,-2.042095610681176,2.8669103575646875,-0.12225918296873568,0.8338285684585571,0.21345393359661102,1.5597492456436157,,,,,,
1764808563.363816,,,,,,,0.4805065393447876,-0.25019150972366333,0.04422515630722046,0.14384476840496063,0.9872873425483704,-1.5036811828613281
1764808563.372952,-1.9559838458925485,2.6924919482916594,0.17224398784339426,0.7494721412658691,0.22842542827129364,1.4367817640304565,,,,,,
1764808563.373846,,,,,,,0.4280620813369751,-0.284995436668396,0.007442831993103027,0.17288681864738464,0.8638335466384888,-1.3375898599624634
1764808563.383003,-2.0454054658815264,2.3512398857861756,0.4574538451313972,0.6497543454170227,0.2432461827993393,1.3044309616088867,,,,,,
1764808563.383876,,,,,,,0.3884384036064148,-0.2587575912475586,0.005723059177398682,0.24649876356124878,0.7894267439842224,-1.165554404258728
1764808563.393057,-2.2891563545778393,2.122832112172246,0.5715709304377437,0.5442639589309692,0.2581833600997925,1.1348944902420044,,,,,,
1764808563.393906,,,,,,,0.38148176670074463,-0.24230074882507324,-0.004110276699066162,0.29534032940864563,0.7074844241142273,-1.0308562517166138
1764808563.403108,-2.283545528958738,2.287068150126934,0.516791292501986,0.4491962492465973,0.26613494753837585,0.918333888053894,,,,,,
1764808563.403936,,,,,,,0.41816872358322144,-0.190303772687912,0.04576456546783447,0.26954254508018494,0.6036581993103027,-0.9398934841156006
1764808563.413161,-1.569839040954411,2.9579391204893586,0.2097191474959254,0.41915473341941833,0.2820340096950531,0.7490103840827942,,,,,,
1764808563.413966,,,,,,,0.4533700942993164,-0.1008962094783783,0.052109479904174805,0.31831809878349304,0.4568900465965271,-0.843172550201416
1764808563.423213,-0.6705158733144402,3.1495114936590194,0.06255407132953406,0.3774544894695282,0.31363263726234436,0.6861317753791809,,,,,,
1764808563.423996,,,,,,,0.4176488518714905,-0.07568307220935822,0.00987851619720459,0.43851104378700256,0.36176300048828125,-0.7955120801925659
1764808563.433264,-0.17089987975805998,2.5605314555197953,0.09487374791502952,0.3081747591495514,0.2813412547111511,0.6803119778633118,,,,,,
1764808563.434026,,,,,,,0.32966041564941406,-0.09148863703012466,0.005549073219299316,0.5305304527282715,0.3741224706172943,-0.7163165807723999
1764808563.443316,-0.23091069634556768,1.9111393265157937,0.38415216981619593,0.2257928103208542,0.1579483449459076,0.6364418864250183,,,,,,
1764808563.444056,,,,,,,0.2658763527870178,-0.10942257195711136,0.012561261653900146,0.5893601179122925,0.37368065118789673,-0.6008763909339905
1764808563.453368,-0.30023879185467955,1.576618033570051,0.6231961959958076,0.17369072139263153,0.03800463303923607,0.5121498107910156,,,,,,
1764808563.454087,,,,,,,0.2510799765586853,-0.11884110420942307,0.02305072546005249,0.6456566452980042,0.3434889316558838,-0.4980485439300537
1764808563.46342,-0.43942441357448697,1.5867343539148568,0.8611866214692592,0.10039734840393066,-0.025763534009456635,0.3509954512119293,,,,,,
1764808563.464117,,,,,,,0.2818590998649597,-0.15053221583366394,-0.0007214546203613281,0.7221558094024658,0.3003198802471161,-0.2919127345085144
1764808563.473472,-0.8714633930727839,1.8494015400052068,1.2401859385669232,-0.018371641635894775,-0.08102279156446457,0.2286200076341629,,,,,,
1764808563.474147,,,,,,,0.31860971450805664,-0.21332144737243652,-0.052878379821777344,0.712196946144104,0.2189704179763794,-0.09635094553232193
1764808563.483526,-1.6268075672365725,2.146489466613531,1.1540759273439645,-0.12423698604106903,-0.0906221866607666,0.14503619074821472,,,,,,
1764808563.484177,,,,,,,0.33900707960128784,-0.2783318758010864,-0.0971975326538086,0.638725757598877,0.12628495693206787,0.09049210697412491
1764808563.493577,-2.433231940296292,2.1927333313941952,1.034352984854579,-0.1862817108631134,-0.06010369583964348,0.022715870290994644,,,,,,
1764808563.494207,,,,,,,0.35622888803482056,-0.38916292786598206,-0.12912821769714355,0.5305436253547668,0.019139062613248825,0.2926425635814667
1764808563.50363,-3.0017595575153826,2.0117793828725814,1.0831968030005692,-0.2297273427248001,-0.0031149559654295444,-0.171949103474617,,,,,,
1764808563.504237,,,,,,,0.34575343132019043,-0.4637455940246582,-0.125280499458313,0.37797868251800537,-0.08683637529611588,0.49200886487960815
1764808563.513681,-3.2496991300731897,1.6835767715543508,0.9982032285869121,-0.2792155146598816,0.07371803373098373,-0.4177652597427368,,,,,,
1764808563.514267,,,,,,,0.3191955089569092,-0.44547897577285767,-0.1263282299041748,0.3285389542579651,-0.18154770135879517,0.6930423378944397
1764808563.523734,-3.105181061284244,1.410845287567377,0.9514856088146567,-0.3455595374107361,0.15394042432308197,-0.6761753559112549,,,,,,
1764808563.524297,,,,,,,0.300960898399353,-0.41341811418533325,-0.12614679336547852,0.41129013895988464,-0.26007765531539917,0.9248919486999512
1764808563.533785,-2.715972777122259,1.4422142392992972,0.9584539865225553,-0.42639580368995667,0.20988677442073822,-0.9108821749687195,,,,,,
1764808563.534327,,,,,,,0.2945871353149414,-0.39903977513313293,-0.12599694728851318,0.5616415739059448,-0.34015944600105286,1.1751731634140015
1764808563.543838,-2.394203705982864,1.577224182769656,0.8627399883911013,-0.5031487941741943,0.2409568727016449,-1.1233144998550415,,,,,,
1764808563.544357,,,,,,,0.30425047874450684,-0.392314612865448,-0.11613970994949341,0.6992767453193665,-0.42652201652526855,1.4204587936401367
1764808563.55389,-2.19534526745826,1.788525923281908,0.7772700286373495,-0.5763798952102661,0.2487144023180008,-1.3155452013015747,,,,,,
1764808563.554388,,,,,,,0.3233675956726074,-0.36762309074401855,-0.09970730543136597,0.803532063961029,-0.5073678493499756,1.6434881687164307
1764808563.563942,-2.1205109757483003,2.1269337022721766,0.6460378501400351,-0.6484206914901733,0.2543519139289856,-1.4867932796478271,,,,,,
1764808563.564418,,,,,,,0.34379351139068604,-0.3198873996734619,-0.07323753833770752,0.8559423685073853,-0.5798202157020569,1.8450324535369873
1764808563.573994,-2.1026079470500347,2.359108134943247,0.5262932803407311,-0.7007201313972473,0.26961714029312134,-1.6465195417404175,,,,,,
1764808563.574448,,,,,,,0.3572431802749634,-0.2767181992530823,-0.044364869594573975,0.8548792600631714,-0.6371343731880188,2.0077877044677734
1764808563.584478,,,,,,,0.3614564538002014,-0.278098464012146,-0.02264082431793213,0.7759157419204712,-0.6544140577316284,2.158328056335449
1764808563.584674,-2.1014014938697216,2.5622230618685484,0.641729923813045,-0.7565868496894836,0.2758542597293854,-1.8160121440887451,,,,,,
1764808563.594508,,,,,,,0.377096951007843,-0.3037814497947693,-0.0029290318489074707,0.6006890535354614,-0.6430274248123169,2.313896894454956
1764808563.594726,-2.2564871339023114,2.528864397624135,0.7013432655155658,-0.8202148079872131,0.26391664147377014,-1.983381986618042,,,,,,
1764808563.604538,,,,,,,0.4157133102416992,-0.3274272680282593,0.015188336372375488,0.4056604206562042,-0.6608567833900452,2.4583840370178223
1764808563.604779,-2.2870538293406364,2.7238421953231096,0.7944432817563414,-0.8877754807472229,0.24212320148944855,-2.1502959728240967,,,,,,
1764808563.614568,,,,,,,0.45998650789260864,-0.31801140308380127,0.022843778133392334,0.22352257370948792,-0.748068630695343,2.5937626361846924
1764808563.61483,-2.2589465097531676,2.824506801599264,0.7352718386024236,-0.9553815722465515,0.22413648664951324,-2.3054399490356445,,,,,,
1764808563.624598,,,,,,,0.4802688956260681,-0.27692604064941406,0.03427547216415405,0.14485035836696625,-0.8865082859992981,2.718329906463623
1764808563.624882,-2.149523719742894,2.8216034813731907,0.5197580333530902,-1.0209236145019531,0.1996910721063614,-2.4303297996520996,,,,,,
1764808563.634628,,,,,,,0.45730751752853394,-0.2321963757276535,0.06019628047943115,0.15728464722633362,-0.9805679321289062,2.832962989807129
1764808563.634934,-1.9795456310048698,2.6859932339221237,0.14245266069173812,-1.089906930923462,0.18532539904117584,-2.5400619506835938,,,,,,
1764808563.644659,,,,,,,0.41134917736053467,-0.18176575005054474,0.08853602409362793,0.22780856490135193,-0.971464991569519,2.965121030807495
1764808563.644987,-1.841691404019296,2.579887313374877,-0.11162819110006093,-1.1667507886886597,0.1993430256843567,-2.650702953338623,,,,,,
1764808563.654689,,,,,,,0.3909715414047241,-0.1404390186071396,0.11473333835601807,0.41043588519096375,-0.9186289310455322,3.1033661365509033
1764808563.65504,-1.7846189789712428,2.6930595190465447,-0.20842793864160775,-1.2368561029434204,0.24950607120990753,-2.7520861625671387,,,,,,
1764808563.664719,,,,,,,0.40769684314727783,-0.113680899143219,0.12634378671646118,0.6553710699081421,-0.879719078540802,3.241680383682251
1764808563.665092,-1.7637635302081702,2.9572271728277206,-0.20537322724610566,-1.2972126007080078,0.32845133543014526,-2.856639862060547,,,,,,
1764808563.674749,,,,,,,0.4513416290283203,-0.09314268827438354,0.14306896924972534,0.8557824492454529,-0.8496341109275818,3.365732431411743
1764808563.675143,-1.8490981731444596,3.279213393849134,-0.07216711832731962,-1.3493677377700806,0.4008246064186096,-2.9657862186431885,,,,,,
1764808563.684779,,,,,,,0.5157795548439026,-0.09348782896995544,0.16725760698318481,0.9146146774291992,-0.8304290175437927,3.479092597961426
1764808563.685195,-2.0765894164353607,3.703806587386131,0.05558686266541481,-1.4048080444335938,0.4356577396392822,-3.0918610095977783,,,,,,
1764808563.694809,,,,,,,0.5782678127288818,-0.11932599544525146,0.17373359203338623,0.7914528250694275,-0.8819406628608704,3.6159579753875732
1764808563.695247,-2.285966326364875,4.148787904435396,0.03796206638664007,-1.4609256982803345,0.419081449508667,-3.228015899658203,,,,,,
1764808563.704839,,,,,,,0.6156771183013916,-0.19142916798591614,0.17210769653320312,0.6679657697677612,-0.9788824319839478,3.762721538543701
1764808563.705299,-2.354766306346655,4.418749339187145,-0.23553660258054732,-1.5107909440994263,0.37191492319107056,-3.364581823348999,,,,,,
1764808563.714869,,,,,,,0.6011910438537598,-0.27220845222473145,0.20357924699783325,0.4401121139526367,-1.0258222818374634,3.880962371826172
1764808563.715351,-2.254376425358653,4.3177866267472504,-0.58091670480147,-1.5553776025772095,0.33035364747047424,-3.5091819763183594,,,,,,
1764808563.724899,,,,,,,0.5600736141204834,-0.29472625255584717,0.26871222257614136,0.12248439341783524,-1.0253095626831055,3.97080135345459
1764808563.725404,-2.113883082041144,4.044893814718723,-0.841578250157833,-1.5778402090072632,0.2895677387714386,-3.6641478538513184,,,,,,
1764808563.734929,,,,,,,0.5166667699813843,-0.2768726348876953,0.3414955735206604,-0.26428651809692383,-1.0265815258026123,4.073800563812256
1764808563.735456,-2.0070798268795014,3.701953068473935,-1.143533782802522,-1.57278311252594,0.24837608635425568,-3.8416531085968018,,,,,,
1764808563.74496,,,,,,,0.4844564199447632,-0.24771225452423096,0.36321866512298584,-0.5430010557174683,-0.9784802794456482,4.218524932861328
1764808563.745508,-1.87779995149374,3.3688813898146153,-1.4038582051590085,-1.5539792776107788,0.19702844321727753,-4.0271315574646,,,,,,
1764808563.75499,,,,,,,0.4748007655143738,-0.21636962890625,0.36904460191726685,-0.6480246782302856,-0.8596130013465881,4.362561225891113
1764808563.75556,-1.658290354606509,3.2336645255953074,-1.370680450439453,-1.5302011966705322,0.15001273155212402,-4.190617084503174,,,,,,
1764808563.76502,,,,,,,0.49635881185531616,-0.15857356786727905,0.3708217144012451,-0.5811575055122375,-0.728334903717041,4.455724716186523
1764808563.765612,-1.3485755861371755,3.4257331578493115,-1.1114546369746328,-1.509079098701477,0.13414190709590912,-4.3107171058654785,,,,,,
1764808563.77505,,,,,,,0.5468852519989014,-0.07370847463607788,0.3527980446815491,-0.43637770414352417,-0.6187873482704163,4.521595001220703
1764808563.775664,-1.14364045804739,3.8186546173155307,-0.7832324441730976,-1.5208922624588013,0.16847936809062958,-4.350863933563232,,,,,,
1764808563.78508,,,,,,,0.6208583116531372,0.010317981243133545,0.2895013689994812,-0.2713858187198639,-0.6054403781890869,4.62283182144165
1764808563.785717,-1.1055892520725727,4.509571181362867,-0.5011715524353086,-1.5553052425384521,0.22106795012950897,-4.355484485626221,,,,,,
1764808563.79511,,,,,,,0.6920721530914307,0.03865623474121094,0.20632120966911316,-0.1403372585773468,-0.7171498537063599,4.654208183288574
1764808563.795768,-1.3743933334827423,4.823508535963296,-0.49646249796152114,-1.5932453870773315,0.20410947501659393,-4.389369487762451,,,,,,
1764808563.80514,,,,,,,0.7123590111732483,0.04255396127700806,0.17006054520606995,-0.14868883788585663,-0.7342404127120972,4.682747840881348
1764808563.80582,-1.631281351649761,4.648448906177282,-0.35544425398707385,-1.6482375860214233,0.1486818939447403,-4.464416027069092,,,,,,
1764808563.81517,,,,,,,0.7037789821624756,0.04711967706680298,0.164542555809021,-0.17505839467048645,-0.6951518654823303,4.796147346496582
1764808563.815873,-1.625761126923561,4.377603382067382,-0.011615472861379384,-1.6985780000686646,0.11410262435674667,-4.551506519317627,,,,,,
1764808563.8252,,,,,,,0.6813647150993347,0.01485377550125122,0.16778159141540527,-0.0539390966296196,-0.7738874554634094,4.902459621429443
1764808563.825925,-1.4251409394234418,4.076288193152845,0.12604615416154263,-1.7337201833724976,0.13208834826946259,-4.623290538787842,,,,,,
1764808563.83523,,,,,,,0.6156237125396729,-0.02887171506881714,0.1940462589263916,0.08137505501508713,-0.7960662245750427,4.955763339996338
1764808563.835978,-1.1759727018535135,3.6608372142314907,-0.034938188520818945,-1.7575652599334717,0.1985747069120407,-4.691753387451172,,,,,,
1764808563.845261,,,,,,,0.5215885639190674,-0.0360451340675354,0.21958991885185242,0.27561184763908386,-0.6189221143722534,5.033894062042236
1764808563.84603,-1.0368746122866868,3.213798672391474,-0.25802315967679024,-1.7814775705337524,0.2623378038406372,-4.777328014373779,,,,,,
1764808563.855291,,,,,,,0.4780682325363159,0.006553590297698975,0.21794143319129944,0.6146647930145264,-0.36668717861175537,5.1693501472473145
1764808563.856081,-1.0219786564499138,2.960948823699355,-0.32775062976703045,-1.8211408853530884,0.2960939109325409,-4.879145622253418,,,,,,
1764808563.865321,,,,,,,0.5031380653381348,0.09361594915390015,0.20992588996887207,1.0222327709197998,-0.19557349383831024,5.307502269744873
1764808563.866133,-0.9926011707961558,2.9969550798431035,-0.3572387361884117,-1.878360629081726,0.30869466066360474,-4.969356060028076,,,,,,
1764808563.875351,,,,,,,0.5672192573547363,0.18458199501037598,0.1653769612312317,1.583122730255127,-0.10712806135416031,5.4656291007995605
1764808563.876185,-0.8616992471665144,3.2950819941103457,-0.3763888423383236,-1.9430371522903442,0.3256155848503113,-5.027927398681641,,,,,,
1764808563.885381,,,,,,,0.607390820980072,0.22586798667907715,0.13637256622314453,2.2132577896118164,-0.03899587690830231,5.583454608917236
1764808563.886237,-0.6566127279073,3.5536931828081606,-0.47585707843676206,-2.0212035179138184,0.3782448470592499,-5.052321434020996,,,,,,
1764808563.895411,,,,,,,0.6097831726074219,0.2756683826446533,0.13636839389801025,2.4779231548309326,0.11147484928369522,5.600121974945068
1764808563.896291,-0.43950726955235003,3.7263591954559088,-0.6701650140501558,-2.1047661304473877,0.44785934686660767,-5.0699143409729,,,,,,
1764808563.905441,,,,,,,0.5953770875930786,0.3285200595855713,0.1890583634376526,2.1433115005493164,0.3679274022579193,5.6064534187316895
1764808563.906343,-0.20250176346302032,3.9693715407446026,-0.807192142561823,-2.155499219894409,0.5004730820655823,-5.090708255767822,,,,,,
1764808563.915471,,,,,,,0.58426833152771,0.22701036930084229,0.270386278629303,1.5522786378860474,0.6438407301902771,5.564873218536377
1764808563.916394,0.143290280559659,4.274935911536216,-0.8593570679545403,-2.127305746078491,0.49288496375083923,-5.139850616455078,,,,,,
1764808563.925501,,,,,,,0.5663652420043945,0.044756531715393066,0.338188111782074,0.5114439725875854,0.912601888179779,5.367621421813965
1764808563.926446,0.6751005707561969,4.652751571807265,-0.8562814599014819,-2.0028152465820312,0.3649897277355194,-5.184628486633301,,,,,,
1764808563.935532,,,,,,,0.5638303756713867,0.02640753984451294,0.4100267291069031,-0.6820993423461914,1.0453391075134277,5.144376277923584
1764808563.936498,1.5169617295086384,5.2580403551906345,-0.8416111295141279,-1.8050976991653442,0.09708157926797867,-5.200106143951416,,,,,,
1764808563.945562,,,,,,,0.6146944165229797,0.12025701999664307,0.4144018292427063,-1.1044572591781616,1.0309196710586548,5.079611778259277
1764808563.94655,2.328674418234825,5.8198500623315566,-1.0950840785406528,-1.5734844207763672,-0.2517264783382416,-5.173581600189209,,,,,,
1764808563.955592,,,,,,,0.6724352836608887,0.2571781873703003,0.34610795974731445,-0.9523458480834961,0.9246180653572083,5.052449703216553
1764808563.956602,2.8018127392321825,6.0098565013587475,-1.49681194479689,-1.401810646057129,-0.5972710847854614,-5.087747573852539,,,,,,
1764808563.965622,,,,,,,0.6836043000221252,0.427399218082428,0.3019115924835205,-0.507625937461853,0.851560115814209,4.978128433227539
1764808563.966655,2.824509139686823,5.600405931895971,-1.5563773557044565,-1.3485634326934814,-0.828498363494873,-4.987703323364258,,,,,,
1764808563.975652,,,,,,,0.6618026494979858,0.5486813187599182,0.2549867033958435,0.02745954878628254,0.9034414291381836,4.9825825691223145
1764808563.976708,2.5373732827723026,4.727766188520193,-1.6263536859892307,-1.3927929401397705,-0.8701465129852295,-4.930086612701416,,,,,,
1764808563.985682,,,,,,,0.6323438882827759,0.6068134307861328,0.22153013944625854,0.371062308549881,1.0893568992614746,5.106821537017822
1764808563.986759,2.1881530178666115,3.9626971775472164,-1.6909946465954184,-1.4796139001846313,-0.7492329478263855,-4.923416614532471,,,,,,
1764808563.995712,,,,,,,0.6174111366271973,0.5819574594497681,0.19002372026443481,0.43879154324531555,1.2689162492752075,5.141903877258301
1764808563.996811,1.823703619647026,3.6514006928443905,-1.613134138932079,-1.5614936351776123,-0.5774127244949341,-4.920477867126465,,,,,,
1764808564.005742,,,,,,,0.6253151297569275,0.5006483793258667,0.14580708742141724,0.12540388107299805,1.4142804145812988,5.046984672546387
1764808564.006863,1.6364561239391564,3.944174263384938,-1.28566057254076,-1.5996383428573608,-0.45146575570106506,-4.866937160491943,,,,,,
1764808564.015773,,,,,,,0.6530743837356567,0.42900311946868896,0.1317201852798462,-0.25509658455848694,1.438555359840393,4.906548500061035
1764808564.016916,1.7143571097433565,4.475142257538438,-1.066623707731813,-1.5938225984573364,-0.43075862526893616,-4.750875473022461,,,,,,
1764808564.025803,,,,,,,0.6728106737136841,0.3953547477722168,0.14612388610839844,-0.6066780090332031,1.3877910375595093,4.751092433929443
1764808564.026968,1.8056535836935041,4.795150164224207,-0.997982425443083,-1.5562912225723267,-0.5301564931869507,-4.595873832702637,,,,,,
1764808564.035834,,,,,,,0.6638051271438599,0.4246199131011963,0.19274765253067017,-0.7806793451309204,1.3339091539382935,4.592883586883545
1764808564.037019,1.8723375944346188,4.883623981969058,-0.9294248759150504,-1.4907516241073608,-0.665000319480896,-4.457611560821533,,,,,,
1764808564.045864,,,,,,,0.6187499761581421,0.4594852328300476,0.22460609674453735,-0.765512228012085,1.3560551404953003,4.484711647033691
1764808564.047071,1.8156757960140704,4.769349660274386,-1.0654454577326773,-1.4085328578948975,-0.7527999877929688,-4.387211799621582,,,,,,
1764808564.055894,,,,,,,0.5767500400543213,0.49199897050857544,0.2365633249282837,-0.6457493305206299,1.4501729011535645,4.43644380569458
1764808564.057125,1.6512497884452342,4.678725971019268,-1.2768695094503462,-1.3535311222076416,-0.7864394187927246,-4.372749328613281,,,,,,
1764808564.065924,,,,,,,0.5713977813720703,0.499750018119812,0.20960330963134766,-0.6239220499992371,1.54093337059021,4.37192440032959
1764808564.067177,1.5315701005756854,4.788088847535849,-1.4086765652261675,-1.3367469310760498,-0.7747997045516968,-4.391895294189453,,,,,,
1764808564.075954,,,,,,,0.5938293933868408,0.4909582734107971,0.2034606635570526,-0.7223186492919922,1.6000111103057861,4.320554256439209
1764808564.077229,1.5152853207290171,4.858214523163437,-1.6034266916491091,-1.3310283422470093,-0.7230744361877441,-4.396050453186035,,,,,,
1764808564.085984,,,,,,,0.626987874507904,0.4432889223098755,0.2081441879272461,-0.8232259750366211,1.6174918413162231,4.234067440032959
1764808564.08728,1.6519278338372707,4.841971828892826,-1.7491082512594758,-1.3169997930526733,-0.6848997473716736,-4.339818477630615,,,,,,
1764808564.096014,,,,,,,0.6525323987007141,0.4618210792541504,0.1808667778968811,-0.974381148815155,1.6390658617019653,4.102007865905762
1764808564.097332,1.94837161732316,5.098895502895116,-1.564493880534172,-1.2798165082931519,-0.7202396392822266,-4.201107025146484,,,,,,
1764808564.106044,,,,,,,0.6828827857971191,0.5455801486968994,0.1345938742160797,-1.0281709432601929,1.6061654090881348,3.931344747543335
1764808564.107384,2.264097024384141,5.612396229419112,-1.2337388082541525,-1.21469247341156,-0.8636811375617981,-4.015405654907227,,,,,,
1764808564.116074,,,,,,,0.7139535546302795,0.5887104868888855,0.08563899993896484,-1.0058730840682983,1.4704989194869995,3.737738609313965
1764808564.117436,2.3314245937258002,5.898422663787007,-0.9569733925759791,-1.1512788534164429,-1.068711757659912,-3.8216705322265625,,,,,,
1764808564.126104,,,,,,,0.7142607569694519,0.6008722186088562,0.0849003791809082,-0.9743098020553589,1.3167661428451538,3.524949312210083
1764808564.12749,2.121999753001332,5.7813569578081365,-0.9028701925970614,-1.1203595399856567,-1.2571394443511963,-3.6569101810455322,,,,,,
1764808564.136135,,,,,,,0.6736214756965637,0.591723620891571,0.08697068691253662,-0.9153551459312439,1.2394801378250122,3.3478355407714844
1764808564.137542,1.804693214228749,5.44331976569593,-1.0028970854915678,-1.1043955087661743,-1.391103982925415,-3.53476619720459,,,,,,
1764808564.146165,,,,,,,0.6208720207214355,0.5688875913619995,0.10461640357971191,-0.8641692996025085,1.212594747543335,3.2283382415771484
1764808564.147593,1.4943535918593407,5.1541135322481395,-1.1441269263900815,-1.0882686376571655,-1.4323797225952148,-3.4451351165771484,,,,,,
1764808564.156195,,,,,,,0.577345609664917,0.5178540945053101,0.1399068534374237,-0.971717357635498,1.1648417711257935,3.1197001934051514
1764808564.157645,1.269507310119271,5.106316592806578,-1.3283563894510269,-1.0871500968933105,-1.3973098993301392,-3.385554075241089,,,,,,
1764808564.166225,,,,,,,0.542702317237854,0.4181938171386719,0.1664552092552185,-1.2658030986785889,1.1844232082366943,3.032346487045288
1764808564.167697,1.103850299450755,4.9252282042503355,-1.4954901946738361,-1.098565936088562,-1.3454645872116089,-3.367187738418579,,,,,,
1764808564.176255,,,,,,,0.5134221315383911,0.31196698546409607,0.17346101999282837,-1.6045812368392944,1.2196168899536133,3.0096688270568848
1764808564.17775,1.086886597429216,4.508146116995811,-1.462845523917675,-1.137134075164795,-1.3199595212936401,-3.375483274459839,,,,,,
1764808564.186285,,,,,,,0.5170603394508362,0.2611556649208069,0.15414342284202576,-1.872459053993225,1.230320930480957,3.0037717819213867
1764808564.187802,1.4338956160262226,4.286030137002468,-1.151935992705822,-1.1690268516540527,-1.3388121128082275,-3.3819470405578613,,,,,,
1764808564.196315,,,,,,,0.5307952761650085,0.27851879596710205,0.15907999873161316,-1.951003909111023,1.2146061658859253,2.990067481994629
1764808564.197853,1.795579348924756,4.13227633009553,-1.00354108248353,-1.1619760990142822,-1.3977384567260742,-3.385474681854248,,,,,,
1764808564.206345,,,,,,,0.5137134790420532,0.31799688935279846,0.1725146472454071,-1.9413955211639404,1.2446436882019043,3.0100948810577393
1764808564.207906,1.9094255083352327,3.9526428165227174,-1.0280511082313954,-1.1365342140197754,-1.4360073804855347,-3.411667585372925,,,,,,
1764808564.216375,,,,,,,0.4770207405090332,0.3351810574531555,0.20523488521575928,-1.8383708000183105,1.3378599882125854,3.081170082092285
1764808564.217958,1.6716539863094686,3.8322032501965757,-1.07574020338431,-1.102131962776184,-1.4132987260818481,-3.472707748413086,,,,,,
1764808564.226405,,,,,,,0.44505029916763306,0.3003019690513611,0.2158251404762268,-1.6991028785705566,1.5339280366897583,3.142876148223877
1764808564.22801,1.313805301529169,3.7992303703993557,-1.1900852522276342,-1.0836920738220215,-1.33134925365448,-3.5638444423675537,,,,,,
1764808564.236436,,,,,,,0.44672709703445435,0.31939736008644104,0.19769811630249023,-1.472620964050293,1.7549786567687988,3.2290914058685303
1764808564.238063,0.9893997444063425,3.9150253257900474,-1.2006335342489183,-1.0917060375213623,-1.1986680030822754,-3.6620240211486816,,,,,,
1764808564.246466,,,,,,,0.5116994380950928,0.3743996322154999,0.1710491180419922,-1.2044304609298706,1.8150871992111206,3.3022255897521973
1764808564.248115,0.7526876683056354,4.271056439754367,-1.1596139799878,-1.0908474922180176,-1.0150840282440186,-3.7337141036987305,,,,,,
1764808564.256496,,,,,,,0.5695620179176331,0.38728365302085876,0.15832878649234772,-1.0136889219284058,1.809226393699646,3.3492376804351807
1764808564.258167,0.5181345238044858,4.40790353552401,-1.2754608116962014,-1.0666066408157349,-0.777533233165741,-3.766303539276123,,,,,,
1764808564.266526,,,,,,,0.5423575043678284,0.352760374546051,0.1650293618440628,-0.9031888246536255,1.8267427682876587,3.373347282409668
1764808564.268219,0.29657895417287944,4.204292934036254,-1.411990658210218,-1.0453212261199951,-0.535981297492981,-3.7762529850006104,,,,,,
1764808564.276556,,,,,,,0.44373977184295654,0.3091267943382263,0.1653984785079956,-0.9268566370010376,2.003913402557373,3.3471930027008057
1764808564.278271,0.22814634619876742,3.699800858876109,-1.346793378895521,-1.0539437532424927,-0.3451024293899536,-3.8005411624908447,,,,,,
1764808564.286586,,,,,,,0.3706240653991699,0.28229206800460815,0.16725081205368042,-0.9605655074119568,2.1890313625335693,3.333083391189575
1764808564.288324,0.2769172452390194,3.223433638960123,-1.1253126280657946,-1.0723342895507812,-0.2410997897386551,-3.852294921875,,,,,,
1764808564.296616,,,,,,,0.38849568367004395,0.26434919238090515,0.1513153314590454,-1.008226990699768,2.3171491622924805,3.298917293548584
1764808564.298376,0.5347319497969001,3.1508816129684445,-1.052605557642877,-1.0883111953735352,-0.26570048928260803,-3.8922576904296875,,,,,,
1764808564.306646,,,,,,,0.47742998600006104,0.27989932894706726,0.14814341068267822,-1.0127100944519043,2.2890827655792236,3.3067710399627686
1764808564.308428,0.8824682597551494,3.5884903554230925,-1.0457564224004745,-1.0875810384750366,-0.4054882228374481,-3.904611587524414,,,,,,
1764808564.316676,,,,,,,0.5759432315826416,0.2825621962547302,0.1396300196647644,-1.030245065689087,2.1216678619384766,3.2670185565948486
1764808564.31848,1.1555658736407757,4.2064293615430595,-1.1292793397396803,-1.039872407913208,-0.554222583770752,-3.8912878036499023,,,,,,
1764808564.326707,,,,,,,0.59638512134552,0.2942681908607483,0.1118893027305603,-1.071641445159912,1.9985976219177246,3.2294399738311768
1764808564.328532,1.3564232308976352,4.400651372438669,-1.2851459010168909,-0.9805389046669006,-0.6467408537864685,-3.843066930770874,,,,,,
1764808564.336737,,,,,,,0.5431792140007019,0.3326762020587921,0.08826577663421631,-1.1172534227371216,1.9502851963043213,3.18571400642395
1764808564.338583,1.523456059964001,4.1550569017022845,-1.1879726439878344,-0.9459593296051025,-0.6826834082603455,-3.759972333908081,,,,,,
1764808564.346767,,,,,,,0.4694100022315979,0.3337782025337219,0.051346421241760254,-1.1848732233047485,1.9343485832214355,3.085383653640747
1764808564.348637,1.5855645794831215,3.6489264116853475,-0.9298077377527951,-0.9358646273612976,-0.6734094619750977,-3.6748263835906982,,,,,,
1764808564.356797,,,,,,,0.41328561305999756,0.3420659601688385,0.028819680213928223,-1.2026636600494385,1.980843186378479,3.005927801132202
1764808564.358689,1.4680344708628952,3.033445904633403,-0.7323679338544606,-0.9291907548904419,-0.6094847321510315,-3.6080620288848877,,,,,,
1764808564.366827,,,,,,,0.3866550922393799,0.3946268856525421,-0.00602317601442337,-1.0729573965072632,2.0163538455963135,2.9381537437438965
1764808564.368741,1.3585427072696388,2.869350736454129,-0.6891653364658356,-0.9241220355033875,-0.48278501629829407,-3.5515553951263428,,,,,,
1764808564.376857,,,,,,,0.3920711874961853,0.4203694760799408,-0.0743246078491211,-0.9196963310241699,2.0541305541992188,2.8486549854278564
1764808564.378793,1.4511676533445714,3.157241211128235,-0.6611486177712679,-0.9215848445892334,-0.34551504254341125,-3.503241777420044,,,,,,
1764808564.386887,,,,,,,0.4355810284614563,0.4409567713737488,-0.13943181931972504,-0.8125751614570618,2.037689208984375,2.8017585277557373
1764808564.388844,1.7215356230705976,3.5025568698108196,-0.6067632398501038,-0.9428156018257141,-0.22569891810417175,-3.427931785583496,,,,,,
1764808564.396917,,,,,,,0.5015875101089478,0.4282214641571045,-0.1856463998556137,-0.7526295781135559,1.840692162513733,2.74743390083313
1764808564.398896,2.2664767591275274,3.8938668024271723,-0.49392596522122617,-0.9536211490631104,-0.16943033039569855,-3.330934524536133,,,,,,
1764808564.406947,,,,,,,0.5074120759963989,0.3818439245223999,-0.21009111404418945,-0.7755597829818726,1.7027156352996826,2.6838624477386475
1764808564.408948,2.851724771131575,3.7732922115445136,-0.4718643555387854,-0.9392426013946533,-0.20467816293239594,-3.2370429039001465,,,,,,
1764808564.416977,,,,,,,0.45535796880722046,0.387029230594635,-0.21216654777526855,-0.8287497758865356,1.5985597372055054,2.6555240154266357
1764808564.419001,3.4178464962527153,3.3696827693253755,-0.43347412686794995,-0.919552743434906,-0.3281809389591217,-3.1338634490966797,,,,,,
1764808564.427007,,,,,,,0.40298616886138916,0.3797878921031952,-0.22076402604579926,-0.9464347958564758,1.5030268430709839,2.547539234161377
1764808564.429054,3.98492975988239,3.0734675338983535,-0.23130115696787834,-0.9136396646499634,-0.5498502254486084,-3.0274057388305664,,,,,,
1764808564.437038,,,,,,,0.3668026328086853,0.37227126955986023,-0.25140154361724854,-1.1265232563018799,1.402766466140747,2.457899570465088
1764808564.439106,4.3967523191735145,2.7385312304109335,-0.021185119108855722,-0.8948585391044617,-0.8012851476669312,-2.9091479778289795,,,,,,
1764808564.447068,,,,,,,0.35855787992477417,0.36607417464256287,-0.27388522028923035,-1.2969307899475098,1.2128719091415405,2.3303747177124023
1764808564.449157,4.660695224288106,2.503180505791306,-0.019554595297574997,-0.8634037971496582,-1.0476268529891968,-2.7638773918151855,,,,,,
1764808564.457098,,,,,,,0.32380908727645874,0.3766349256038666,-0.30457282066345215,-1.461354374885559,1.1112028360366821,2.201568126678467
1764808564.459209,4.758015196311473,2.103985957404971,-0.05127835181653499,-0.859600305557251,-1.2410471439361572,-2.611660957336426,,,,,,
1764808564.467128,,,,,,,0.2858538031578064,0.4172462522983551,-0.32509568333625793,-1.5338317155838013,0.9830105900764465,2.1182141304016113
1764808564.469261,4.8142739668890835,1.8595646221011877,-0.05962064822614192,-0.8739373087882996,-1.3897889852523804,-2.45456862449646,,,,,,
1764808564.477158,,,,,,,0.25723791122436523,0.4324347674846649,-0.34636595845222473,-1.6194510459899902,0.8651273250579834,1.9796537160873413
1764808564.479314,4.740569555991888,1.6503192295968532,-0.1444710147768259,-0.8815885782241821,-1.4804798364639282,-2.3169164657592773,,,,,,
1764808564.487188,,,,,,,0.22916966676712036,0.46056559681892395,-0.35863813757896423,-1.6814587116241455,0.7586171627044678,1.8921594619750977
1764808564.489366,4.503589184343815,1.4280974511414766,-0.35315643531084057,-0.883666455745697,-1.5035510063171387,-2.153285264968872,,,,,,
1764808564.497218,,,,,,,0.20982831716537476,0.4481704533100128,-0.3494375944137573,-1.7661763429641724,0.6232526302337646,1.7613517045974731
1764808564.499419,4.360138452525437,1.4428642276406287,-0.45700785492956636,-0.880609393119812,-1.4858649969100952,-1.9915236234664917,,,,,,
1764808564.507248,,,,,,,0.16956186294555664,0.4458901286125183,-0.33703649044036865,-1.826975703239441,0.5621775984764099,1.6590056419372559
1764808564.50947,4.034928885543346,1.270856386640668,-0.6033408641859889,-0.8909019827842712,-1.4113023281097412,-1.8508833646774292,,,,,,
1764808564.517278,,,,,,,0.13970023393630981,0.44747787714004517,-0.32342690229415894,-1.801162838935852,0.4644555449485779,1.5730534791946411
1764808564.519522,3.826812789329886,1.1904039627879857,-0.762393946544826,-0.893153727054596,-1.3532999753952026,-1.7370494604110718,,,,,,
1764808564.527309,,,,,,,0.11808192729949951,0.4790396988391876,-0.30611348152160645,-1.7039403915405273,0.3884018063545227,1.4891518354415894
1764808564.529575,3.6337148140281434,1.0728630405128001,-1.0197282471746205,-0.8626799583435059,-1.2547023296356201,-1.64545738697052,,,,,,
1764808564.537339,,,,,,,0.09668266773223877,0.5010133385658264,-0.2777484953403473,-1.583143949508667,0.31891167163848877,1.4046821594238281
1764808564.539627,3.509417110969126,1.0033540354788302,-1.3496914384245873,-0.816929817199707,-1.1015833616256714,-1.5468595027923584,,,,,,
1764808564.547369,,,,,,,0.05712747573852539,0.4988836646080017,-0.2787724733352661,-1.4767476320266724,0.31884801387786865,1.3330518007278442
1764808564.549679,3.4999256445243954,0.9218488877028226,-1.3967910432517527,-0.7957269549369812,-0.9333593845367432,-1.4468268156051636,,,,,,
1764808564.557399,,,,,,,0.0260392427444458,0.5114983320236206,-0.310815691947937,-1.3265495300292969,0.2984791100025177,1.2665297985076904
1764808564.559731,3.635843642750382,0.6991542310386896,-1.3234183485269546,-0.7805626392364502,-0.8148055672645569,-1.3415746688842773,,,,,,
1764808564.567429,,,,,,,0.008957624435424805,0.5349006056785583,-0.327875018119812,-1.1495546102523804,0.26909297704696655,1.1898415088653564
1764808564.569783,3.8594273572087285,0.37131869946718216,-1.3946113611251114,-0.7566190361976624,-0.7055559754371643,-1.2007789611816406,,,,,,
1764808564.577459,,,,,,,-0.016305088996887207,0.5497511625289917,-0.3185875415802002,-0.8806945085525513,0.2556072771549225,1.126833438873291
1764808564.579835,4.308445382428169,0.2661889304757118,-1.6256003834038972,-0.7059140205383301,-0.6062107086181641,-1.0496522188186646,,,,,,
1764808564.587489,,,,,,,-0.042639195919036865,0.5409190058708191,-0.29719460010528564,-0.7246697545051575,0.29370591044425964,1.1097928285598755
1764808564.589888,4.216623715560138,0.19850363373756408,-1.8945353977173565,-0.6425306797027588,-0.4902840256690979,-1.002358317375183,,,,,,
1764808564.597519,,,,,,,-0.040569841861724854,0.49064797163009644,-0.28220701217651367,-0.5768803358078003,0.27892324328422546,1.081291913986206
1764808564.59994,3.6034158296152947,0.2363479189634323,-2.023487356323004,-0.5912440419197083,-0.3633263409137726,-0.9552257061004639,,,,,,
1764808564.607549,,,,,,,-0.04597640037536621,0.47540128231048584,-0.2781931161880493,-0.4597254991531372,0.2885332703590393,1.024902582168579
1764808564.609991,3.453891623102128,0.37827626352012156,-1.9479425782561302,-0.568878710269928,-0.19445288181304932,-0.8963593244552612,,,,,,
1764808564.617579,,,,,,,-0.03935056924819946,0.5162172913551331,-0.25638747215270996,-0.32825616002082825,0.2658039629459381,0.9951934814453125
1764808564.620044,3.3644477912813424,0.27341069842278953,-1.8429700456529854,-0.5643119215965271,-0.031551577150821686,-0.8263227343559265,,,,,,
1764808564.62761,,,,,,,-0.04220396280288696,0.4673633575439453,-0.24625110626220703,-0.26674988865852356,0.2442994862794876,0.9191768765449524
1764808564.630095,3.2849083906203504,0.1419733527421951,-1.830564737588167,-0.5496091246604919,0.08327770978212357,-0.7803471088409424,,,,,,
1764808564.63764,,,,,,,-0.055944740772247314,0.4404296278953552,-0.24980320036411285,-0.18638502061367035,0.20746956765651703,0.8670188784599304
1764808564.640149,3.2524393686920403,0.03950841904580593,-1.8272446532547473,-0.5177584886550903,0.1763075292110443,-0.7389366030693054,,,,,,
1764808564.64767,,,,,,,-0.0733608603477478,0.4684096574783325,-0.2594316005706787,-0.08028792589902878,0.1723398119211197,0.8075823187828064
1764808564.650201,3.45070860915184,-0.05793605614006519,-1.8790297855496405,-0.47501227259635925,0.2642127275466919,-0.6831421256065369,,,,,,
1764808564.6577,,,,,,,-0.10634303092956543,0.4995632767677307,-0.2724798917770386,0.02747289277613163,0.2131844460964203,0.7535262703895569
1764808564.660253,3.7408331264883277,-0.35247722087502475,-2.034563461610675,-0.4562700390815735,0.345537394285202,-0.600629985332489,,,,,,
1764808564.66773,,,,,,,-0.11471331119537354,0.5228544473648071,-0.2880280017852783,0.15099690854549408,0.27266934514045715,0.7238891124725342
1764808564.670305,4.144667609634995,-0.3611456804990768,-2.0135177509725093,-0.42629244923591614,0.34855812788009644,-0.47766387462615967,,,,,,
1764808564.67776,,,,,,,-0.07252651453018188,0.4934348464012146,-0.2672538757324219,0.2380005121231079,0.15091414749622345,0.6224927306175232
1764808564.680357,4.367067082744836,0.2042015531182289,-1.982009098508954,-0.32127147912979126,0.3223068118095398,-0.3578450679779053,,,,,,
1764808564.68779,,,,,,,-0.04813385009765625,0.4878702759742737,-0.2364135980606079,0.3439357876777649,0.07212851196527481,0.5122835040092468
1764808564.690408,3.8622926835119724,0.40847967860400675,-2.272967144060135,-0.21571022272109985,0.3986159563064575,-0.26711124181747437,,,,,,
1764808564.69782,,,,,,,-0.07408303022384644,0.5338366627693176,-0.2381744235754013,0.44856128096580505,0.08076247572898865,0.42845383286476135
1764808564.700462,3.306845497140288,0.31730829233825203,-2.186584745636582,-0.1710074543952942,0.5470618605613708,-0.17837339639663696,,,,,,
1764808564.70785,,,,,,,-0.10998034477233887,0.5513917803764343,-0.24495817720890045,0.5377086400985718,0.13192260265350342,0.3134428858757019
1764808564.710514,3.1964386645287273,0.1225765783548355,-1.8815707022041082,-0.15537557005882263,0.7028318643569946,-0.1015382930636406,,,,,,
1764808564.71788,,,,,,,-0.11167764663696289,0.5288553833961487,-0.250132292509079,0.6310378313064575,0.17465968430042267,0.20176030695438385
1764808564.720566,3.2965017977803943,0.023702947148680684,-1.766811519601941,-0.121427983045578,0.7491143941879272,0.00715089775621891,,,,,,
1764808564.727911,,,,,,,-0.05720001459121704,0.49047917127609253,-0.25455737113952637,0.6225854754447937,0.04143185168504715,0.06292053312063217
1764808564.730618,3.66719798143506,0.5174707991987466,-1.5965069753885268,-0.04266377538442612,0.6051590442657471,0.12983202934265137,,,,,,
1764808564.737941,,,,,,,-0.013362288475036621,0.455294132232666,-0.2418273687362671,0.5166693925857544,-0.09845893830060959,-0.07697878032922745
1764808564.740669,3.835129366776347,0.5922784951627255,-1.4978455256283283,0.030045051127672195,0.38725918531417847,0.2400789111852646,,,,,,
1764808564.747971,,,,,,,-0.011357128620147705,0.4272557497024536,-0.23103466629981995,0.31793925166130066,-0.2046772539615631,-0.2021317034959793
1764808564.750721,4.03009079786241,0.3213783182561397,-1.3982926799863575,0.0744660496711731,0.15174461901187897,0.34928083419799805,,,,,,
1764808564.758001,,,,,,,-0.04467135667800903,0.3784465193748474,-0.182199627161026,0.13004657626152039,-0.27053722739219666,-0.32395851612091064
1764808564.760773,4.231471448341011,0.12092822662591933,-1.3995277747392654,0.14510640501976013,-0.007675394881516695,0.4358445107936859,,,,,,
1764808564.768031,,,,,,,-0.07661229372024536,0.3397427201271057,-0.1432066708803177,0.0350218303501606,-0.296481728553772,-0.4517289400100708
1764808564.770827,3.9385020629674194,0.15336568437218664,-1.7573714910835028,0.23082789778709412,-0.05590343475341797,0.5200220346450806,,,,,,
1764808564.778061,,,,,,,-0.08166712522506714,0.37123584747314453,-0.18216606974601746,0.020865267142653465,-0.338992714881897,-0.5606836676597595
1764808564.780879,3.3959862543612718,0.40008009904921055,-1.6506974152594804,0.2885945439338684,-0.047767478972673416,0.6001770496368408,,,,,,
1764808564.788091,,,,,,,-0.06762295961380005,0.43223291635513306,-0.2393796443939209,0.07258797436952591,-0.3957316279411316,-0.6684908866882324
1764808564.790931,3.0013632516741753,0.13236615096330642,-1.2852584214806555,0.3010382056236267,0.020866768434643745,0.6857497096061707,,,,,,
1764808564.798121,,,,,,,-0.07052534818649292,0.4621099829673767,-0.27502524852752686,0.14130766689777374,-0.43366676568984985,-0.7638762593269348
1764808564.800982,2.942677253949642,-0.3088666272073984,-1.1991530864328146,0.2889341413974762,0.12515296041965485,0.7860249280929565,,,,,,
1764808564.808151,,,,,,,-0.09511494636535645,0.4318690896034241,-0.2829206883907318,0.15957914292812347,-0.4352468252182007,-0.8321090340614319
1764808564.811034,3.208452927449345,-0.5653484026610851,-1.284164781025052,0.28286638855934143,0.19857151806354523,0.8810246586799622,,,,,,
1764808564.818181,,,,,,,-0.10449248552322388,0.3987126350402832,-0.2876088619232178,0.14451603591442108,-0.4691493809223175,-0.8807724714279175
1764808564.821086,3.604593933483958,-0.5641711755752563,-1.3663093957483767,0.2950555086135864,0.19803214073181152,0.9737275242805481,,,,,,
1764808564.828212,,,,,,,-0.08407217264175415,0.3859124779701233,-0.2862686216831207,0.10481017827987671,-0.5611706376075745,-0.9479455947875977
1764808564.83114,3.957926894405484,-0.44790158841013905,-1.4191384841382502,0.3154940605163574,0.14500069618225098,1.061419129371643,,,,,,
1764808564.838242,,,,,,,-0.06952762603759766,0.3713045120239258,-0.2790294885635376,0.09898451715707779,-0.6374385356903076,-0.9785807132720947
1764808564.841192,4.159510373979806,-0.44502924784421916,-1.4765151528298854,0.3366142511367798,0.1174476221203804,1.1360887289047241,,,,,,
1764808564.848272,,,,,,,-0.07409012317657471,0.35314011573791504,-0.27232444286346436,0.13183753192424774,-0.6737102270126343,-1.0168676376342773
1764808564.851243,4.15826446557194,-0.4152560408711433,-1.5269558847784994,0.3323512673377991,0.12314725667238235,1.1942414045333862,,,,,,
1764808564.858302,,,,,,,-0.07145804166793823,0.3746941089630127,-0.31329524517059326,0.17364011704921722,-0.6597899198532104,-1.0345007181167603
1764808564.861295,4.129547489653527,-0.4014396969646215,-1.3196774084329603,0.295553594827652,0.11061654984951019,1.263303518295288,,,,,,
1764808564.868332,,,,,,,-0.021639466285705566,0.4243829846382141,-0.3457843065261841,0.19417963922023773,-0.7060196995735168,-1.058883547782898
1764808564.871347,4.218294279120863,-0.14505202953517435,-0.972259224513173,0.2710505425930023,0.041227757930755615,1.3912845849990845,,,,,,
1764808564.878362,,,,,,,0.04397320747375488,0.3996886610984802,-0.32416120171546936,0.12084737420082092,-0.896835207939148,-1.1659373044967651
1764808564.8814,4.272148618905246,0.35667291899919507,-0.8403595220178365,0.28406888246536255,-0.09011588245630264,1.5239886045455933,,,,,,
1764808564.888392,,,,,,,0.054268836975097656,0.33337390422821045,-0.27901196479797363,-0.042923860251903534,-1.0149592161178589,-1.278257131576538
1764808564.891452,3.9789813728719947,0.5256038367718457,-0.8697621421128511,0.32250601053237915,-0.2341986447572708,1.591088056564331,,,,,,
1764808564.898422,,,,,,,0.03481030464172363,0.3284832835197449,-0.23671317100524902,-0.13694250583648682,-1.077038288116455,-1.34984290599823
1764808564.901505,3.6755955151632427,0.49294893688261504,-0.9937971025824546,0.38466817140579224,-0.3517511188983917,1.6540894508361816,,,,,,
1764808564.908452,,,,,,,0.0072591304779052734,0.35883593559265137,-0.20087669789791107,-0.1559031903743744,-1.1379283666610718,-1.4659236669540405
1764808564.911557,3.58197673574537,0.6024626200467348,-1.029382795226574,0.43108493089675903,-0.4206186830997467,1.7173067331314087,,,,,,
1764808564.918482,,,,,,,-0.015495002269744873,0.38001370429992676,-0.20616188645362854,-0.19273097813129425,-1.1041187047958374,-1.5510070323944092
1764808564.921608,3.431784420712292,0.4724789803057909,-1.0466343742787838,0.4539572298526764,-0.4610268175601959,1.7669590711593628,,,,,,
1764808564.928513,,,,,,,0.0023223161697387695,0.37267616391181946,-0.2045605182647705,-0.19879576563835144,-1.090325951576233,-1.6116400957107544
1764808564.93166,3.3720363467141983,0.4801204349696636,-1.027832643175125,0.4768993556499481,-0.5179881453514099,1.8499515056610107,,,,,,
1764808564.938543,,,,,,,0.05238044261932373,0.3612617552280426,-0.21824824810028076,-0.2030182033777237,-1.1108250617980957,-1.6935232877731323
1764808564.941713,3.405342696249485,0.8693062150388956,-0.9080664460659027,0.524847686290741,-0.5756248235702515,1.9596718549728394,,,,,,
1764808564.948573,,,,,,,0.11583995819091797,0.36826303601264954,-0.21701514720916748,-0.17447592318058014,-1.1900575160980225,-1.7825125455856323
1764808564.951765,3.2052883259385823,1.3330758191883563,-0.8977829524606465,0.6162945032119751,-0.5701882839202881,2.0977163314819336,,,,,,
1764808564.958603,,,,,,,0.15295755863189697,0.38097646832466125,-0.1791229248046875,-0.03787333145737648,-1.264262318611145,-1.901404619216919
1764808564.961818,2.6691300696656106,1.6837988898724316,-1.0303162766844034,0.7097921967506409,-0.4775206446647644,2.229348659515381,,,,,,
1764808564.968633,,,,,,,0.1427973508834839,0.4114338755607605,-0.16155970096588135,0.1415351778268814,-1.2789671421051025,-2.0229687690734863
1764808564.971869,1.8970295526206493,1.8042063074946402,-1.000665234786272,0.7740476131439209,-0.30779021978378296,2.3069028854370117,,,,,,
1764808564.978663,,,,,,,0.11910146474838257,0.45705628395080566,-0.1395571231842041,0.364433228969574,-1.1855738162994385,-2.1374197006225586
1764808564.981921,1.253194473221898,1.6932406719565392,-1.0030290413081646,0.8288527727127075,-0.06070854887366295,2.363870859146118,,,,,,
1764808564.988693,,,,,,,0.13042449951171875,0.48240938782691956,-0.12077212333679199,0.579936146736145,-1.131434440612793,-2.240978717803955
1764808564.991974,1.0404317202463746,1.9327046771138905,-1.1315855708554385,0.906123697757721,0.21642041206359863,2.463606595993042,,,,,,
1764808564.998723,,,,,,,0.1678844690322876,0.43510866165161133,-0.08997845649719238,0.7335928082466125,-1.1502028703689575,-2.369382858276367
1764808565.002026,1.0212389439985154,2.2390286341011523,-1.1650585091292858,0.9536009430885315,0.44052648544311523,2.568798065185547,,,,,,
1764808565.008753,,,,,,,0.19567978382110596,0.38395246863365173,-0.06944668292999268,0.7608656883239746,-1.1196129322052002,-2.445997476577759
1764808565.012078,0.9568801613345742,2.215151499429345,-1.0489008579060435,0.949611246585846,0.5698487758636475,2.621486186981201,,,,,,
1764808565.018784,,,,,,,0.229020893573761,0.34086480736732483,-0.04229151830077171,0.7288558483123779,-1.1505506038665771,-2.4653983116149902
1764808565.02213,1.1267862077496946,2.022940243834257,-0.9999056485906243,0.9213247299194336,0.5622004866600037,2.6238622665405273,,,,,,
1764808565.028815,,,,,,,0.2524120807647705,0.2617132365703583,0.0035837888717651367,0.6454111337661743,-1.128221869468689,-2.4866864681243896
1764808565.032182,1.5211897224672137,1.8275258082836865,-1.007657285630703,0.900050163269043,0.4861525893211365,2.5962789058685303,,,,,,
1764808565.038845,,,,,,,0.2833234667778015,0.19995799660682678,0.04028820991516113,0.6068517565727234,-1.1223264932632446,-2.4534800052642822
1764808565.042234,1.9010121925160288,2.102293182012439,-1.0863935532152653,0.9196568727493286,0.3791491687297821,2.592578172683716,,,,,,
1764808565.048874,,,,,,,0.3237239122390747,0.14837989211082458,0.0506749153137207,0.5503759980201721,-1.1911091804504395,-2.465958833694458
1764808565.052287,1.9398942963570356,2.5986516350775957,-1.000993736088276,0.9439892172813416,0.2394511103630066,2.6060633659362793,,,,,,
1764808565.058905,,,,,,,0.3374706506729126,0.15898409485816956,0.04484683647751808,0.5325921773910522,-1.1405624151229858,-2.4499876499176025
1764808565.062339,1.5621766896329818,2.8425159210205075,-0.713982090075314,0.9511222243309021,0.09741034358739853,2.6096813678741455,,,,,,
1764808565.068935,,,,,,,0.35530269145965576,0.15733741223812103,0.06456851959228516,0.4770594537258148,-1.179782509803772,-2.410054922103882
1764808565.072391,1.0414800602555274,3.0981022089391943,-0.5068710792511701,0.9679036736488342,-0.04225773736834526,2.6089231967926025,,,,,,
1764808565.078965,,,,,,,0.3573709726333618,0.12971407175064087,0.10934752225875854,0.3217412233352661,-1.2280893325805664,-2.4427342414855957
1764808565.082443,0.4869787764318287,3.158029146635532,-0.405073669552803,0.9856666922569275,-0.1617327332496643,2.5699145793914795,,,,,,
1764808565.088995,,,,,,,0.3240807056427002,0.08994598686695099,0.1470126509666443,0.1576225310564041,-1.2122989892959595,-2.440453052520752
1764808565.092495,0.019493001303449272,2.908413165298104,-0.40745910338461394,1.0031170845031738,-0.2756228744983673,2.4913172721862793,,,,,,
1764808565.099025,,,,,,,0.2751784324645996,0.055104926228523254,0.18753314018249512,0.012889312580227852,-1.194330096244812,-2.432934284210205
1764808565.102547,-0.13203556730207056,2.445481765538454,-0.5604594615757466,1.0027735233306885,-0.3995232582092285,2.379826307296753,,,,,,
1764808565.109055,,,,,,,0.23211342096328735,0.06957583129405975,0.18657314777374268,-0.11759422719478607,-1.0332179069519043,-2.4403417110443115
1764808565.1126,0.030967092932760714,2.0522902569592,-0.6691188659980892,0.9691653847694397,-0.5310016870498657,2.290566921234131,,,,,,
1764808565.119085,,,,,,,0.2629518508911133,0.08232273906469345,0.1468755602836609,-0.17525219917297363,-1.0087064504623413,-2.418907642364502
1764808565.122652,0.4991465859463438,2.355188915672898,-0.5447340691775083,0.9611415266990662,-0.6842817664146423,2.2762887477874756,,,,,,
1764808565.129116,,,,,,,0.32924580574035645,0.05241471529006958,0.1266772747039795,-0.3225540518760681,-1.012090802192688,-2.467029571533203
1764808565.132704,0.8073486482977866,2.8542916990101337,-0.39658728849738833,0.9542673826217651,-0.8701954483985901,2.3213255405426025,,,,,,
1764808565.139146,,,,,,,0.38953322172164917,0.015984034165740013,0.10671424865722656,-0.5450007319450378,-1.0784434080123901,-2.4753949642181396
1764808565.142756,0.6651211746640503,3.425364324536919,-0.045321781499683855,0.9830033779144287,-1.0873668193817139,2.365727424621582,,,,,,
1764808565.149176,,,,,,,0.431939959526062,-0.05003971606492996,0.14724016189575195,-0.9340819120407104,-1.254636287689209,-2.498922348022461
1764808565.152808,0.052509427981451154,3.4780203944474457,0.16116203733682632,1.0242207050323486,-1.294535756111145,2.370461940765381,,,,,,
1764808565.159206,,,,,,,0.39556288719177246,-0.08515220880508423,0.19972461462020874,-1.3663971424102783,-1.3048936128616333,-2.556161880493164
1764808565.162861,-0.844349760697782,3.011662527370453,0.2554568163201213,1.0413951873779297,-1.3925445079803467,2.3167381286621094,,,,,,
1764808565.169236,,,,,,,0.31493669748306274,-0.11688017845153809,0.2500394582748413,-1.8513695001602173,-1.289834976196289,-2.603393316268921
1764808565.172913,-1.5421565226502716,2.6147616428792477,0.2779901351675391,1.062677025794983,-1.3503190279006958,2.250505208969116,,,,,,
1764808565.179266,,,,,,,0.24071836471557617,-0.13398626446723938,0.30365222692489624,-2.1376309394836426,-1.2135746479034424,-2.6607062816619873
1764808565.182965,-1.9814806907206772,2.3114333605766295,0.008067278860509395,1.0952200889587402,-1.1906561851501465,2.1848106384277344,,,,,,
1764808565.189296,,,,,,,0.1724441647529602,-0.11672545969486237,0.26275432109832764,-2.057943105697632,-1.0426079034805298,-2.688209295272827
1764808565.193017,-2.311214164867997,1.9927192930936812,-0.3586266834154725,1.1114330291748047,-0.9908643960952759,2.108863115310669,,,,,,
1764808565.199325,,,,,,,0.1305106282234192,0.04432159662246704,0.17603743076324463,-1.5171339511871338,-0.7690306305885315,-2.672703266143799
1764808565.203069,-2.3676330944433808,1.7293799068301916,-0.5709259105324744,1.1055055856704712,-0.7917762994766235,2.044893503189087,,,,,,
1764808565.209356,,,,,,,0.1742725968360901,0.23369571566581726,0.07701493799686432,-0.7574370503425598,-0.4354899525642395,-2.6536202430725098
1764808565.213122,-1.8592478112369775,2.2464076384365557,-0.3280319309264421,1.126768708229065,-0.6251822710037231,2.0637834072113037,,,,,,
1764808565.219386,,,,,,,0.3217359185218811,0.25705140829086304,0.019109129905700684,-0.08207960426807404,-0.436870813369751,-2.6535146236419678
1764808565.223174,-1.1175156905792654,3.625307051166892,0.16666063475310802,1.2716366052627563,-0.4768887162208557,2.1865787506103516,,,,,,
1764808565.229417,,,,,,,0.4491581916809082,0.14115382730960846,0.05758708715438843,0.2562123239040375,-0.5618452429771423,-2.65177059173584
1764808565.233226,-1.086362573555112,4.318761609259248,0.37535160824507474,1.424579381942749,-0.3760175108909607,2.3232991695404053,,,,,,
1764808565.239447,,,,,,,0.4724167585372925,0.016271501779556274,0.1268014907836914,0.31872737407684326,-0.5454433560371399,-2.662118911743164
1764808565.243278,-1.9330214879781007,4.0707331893742085,0.8228419855058192,1.4935576915740967,-0.30394038558006287,2.36698055267334,,,,,,
1764808565.249477,,,,,,,0.42933177947998047,-0.09440907835960388,0.17554302513599396,0.20311880111694336,-0.4607740044593811,-2.706859827041626
1764808565.25333,-2.777504811927676,3.4967601662307977,1.3783683745935558,1.5071017742156982,-0.26171284914016724,2.3287038803100586,,,,,,
1764808565.259507,,,,,,,0.3943282961845398,-0.14895403385162354,0.20745444297790527,0.06886138767004013,-0.40075168013572693,-2.7647035121917725
1764808565.263382,-3.1562226817354557,3.1592747627824544,1.6717656299903987,1.5235563516616821,-0.20054535567760468,2.251742124557495,,,,,,
1764808565.269537,,,,,,,0.385489284992218,-0.1668621003627777,0.2365873008966446,-0.03673176094889641,-0.42288947105407715,-2.7943308353424072
1764808565.273435,-3.291046747244894,2.9300930821865796,1.5072671417072414,1.5495083332061768,-0.09849769622087479,2.170271635055542,,,,,,
1764808565.279567,,,,,,,0.3638042211532593,-0.20003265142440796,0.26101863384246826,-0.15420831739902496,-0.45853081345558167,-2.7726714611053467
1764808565.283487,-3.356038567115366,2.546770056670904,0.9893744638346135,1.5599147081375122,0.0473250150680542,2.0761876106262207,,,,,,
1764808565.289597,,,,,,,0.3109424114227295,-0.23997101187705994,0.2697964906692505,-0.3024783730506897,-0.31941476464271545,-2.7415308952331543
1764808565.293539,-3.33309140677005,2.0247756425678727,0.509639813312143,1.5163847208023071,0.1842600405216217,1.9847043752670288,,,,,,
1764808565.299627,,,,,,,0.28326088190078735,-0.24059849977493286,0.21276189386844635,-0.3651060461997986,-0.0415426567196846,-2.7030110359191895
1764808565.303591,-2.837024337866902,2.053425982990861,0.8395243863679468,1.443637490272522,0.21765421330928802,1.9327317476272583,,,,,,
1764808565.309657,,,,,,,0.3607303500175476,-0.24630537629127502,0.13838990032672882,-0.34724512696266174,-0.05020245909690857,-2.6508524417877197
1764808565.313643,-2.138113560195267,2.689735927581787,1.3666098399996758,1.4398221969604492,0.14822107553482056,1.9338734149932861,,,,,,
1764808565.319687,,,,,,,0.44382983446121216,-0.2361915111541748,0.13541042804718018,-0.27658000588417053,-0.20191128551959991,-2.616326093673706
