timestamp,phone_accel_x,phone_accel_y,phone_accel_z,phone_gyro_x,phone_gyro_y,phone_gyro_z,watch_accel_x,watch_accel_y,watch_accel_z,watch_gyro_x,watch_gyro_y,watch_gyro_z
1764808591.240344,5.024556008964777,0.9477022908836603,-3.096978757867217,1.0936955213546753,-0.24033711850643158,1.9136581420898438,,,,,,
1764808591.247445,,,,,,,-0.02681070566177368,0.795677900314331,-0.00012558698654174805,-0.7298321723937988,-0.08938714861869812,-2.442490816116333
1764808591.250396,4.801311024941504,1.1819430084347724,-2.87276200620234,1.1926058530807495,-0.3381241261959076,2.0615007877349854,,,,,,
1764808591.257476,,,,,,,0.016208767890930176,0.746479332447052,0.038263797760009766,-0.8157665133476257,-0.08889926224946976,-2.6311638355255127
1764808591.260449,4.563269453802705,1.3144699029177427,-2.7873078285396096,1.2957485914230347,-0.46621039509773254,2.1742894649505615,,,,,,
1764808591.267506,,,,,,,0.04819285869598389,0.6813936829566956,0.09096783399581909,-0.9431856274604797,-0.09697076678276062,-2.786430835723877
1764808591.270501,4.252542293420434,1.4669202260106802,-2.8348265355616804,1.4261070489883423,-0.5248497724533081,2.2698445320129395,,,,,,
1764808591.277537,,,,,,,0.055039823055267334,0.6180227398872375,0.15037286281585693,-1.0289024114608765,-0.05065067112445831,-2.9320991039276123
1764808591.280553,3.787312261329591,1.572617565757036,-3.1109803952127693,1.5691224336624146,-0.4361306428909302,2.363586664199829,,,,,,
1764808591.287566,,,,,,,0.045318603515625,0.5913609266281128,0.15564316511154175,-1.0010080337524414,0.09058874100446701,-3.029186248779297
1764808591.290606,3.282247062456608,1.7370114246219395,-3.176463213470578,1.659286379814148,-0.2798957824707031,2.445434331893921,,,,,,
1764808591.297596,,,,,,,0.07051175832748413,0.5787891149520874,0.11634403467178345,-0.9036729335784912,0.21492747962474823,-3.1033549308776855
1764808591.300658,2.882886509853601,1.9953338595062493,-2.798786669409275,1.695644736289978,-0.1961846500635147,2.5161490440368652,,,,,,
1764808591.307626,,,,,,,0.13944560289382935,0.5886300802230835,0.09234857559204102,-0.7934671640396118,0.254713773727417,-3.1966309547424316
1764808591.31071,2.621334883789718,2.1554741525799033,-2.297570254918933,1.7025010585784912,-0.2233172059059143,2.582228183746338,,,,,,
1764808591.317656,,,,,,,0.21769636869430542,0.5848100185394287,0.10502314567565918,-0.7134562134742737,0.23039378225803375,-3.2648441791534424
1764808591.320762,2.407840601669252,2.18906954818964,-2.0809464426010846,1.6950095891952515,-0.3241257071495056,2.6396234035491943,,,,,,
1764808591.327686,,,,,,,0.27942246198654175,0.4834306836128235,0.16311955451965332,-0.7502973079681396,0.16994749009609222,-3.277498960494995
1764808591.330815,2.1504259292796255,2.2886621413201094,-2.1497709725022314,1.6809744834899902,-0.4623066782951355,2.660045623779297,,,,,,
1764808591.337716,,,,,,,0.30503082275390625,0.2875601053237915,0.24755236506462097,-0.9911624193191528,0.12618403136730194,-3.3175957202911377
1764808591.340867,1.8553505115374922,2.4465701452970503,-2.4506132832080123,1.6698486804962158,-0.6095443964004517,2.5981922149658203,,,,,,
1764808591.347746,,,,,,,0.29599493741989136,0.153894305229187,0.3388615846633911,-1.3303191661834717,0.237566739320755,-3.33933687210083
1764808591.350919,1.5268341580949722,2.5501976930320263,-2.748498497673869,1.649448275566101,-0.8029499053955078,2.4594147205352783,,,,,,
1764808591.357776,,,,,,,0.3085278868675232,0.09366926550865173,0.40010347962379456,-1.6404520273208618,0.3856920301914215,-3.2766470909118652
1764808591.360971,1.393664727924764,3.127710580739379,-2.705469503286481,1.6531744003295898,-1.1127029657363892,2.307154893875122,,,,,,
1764808591.367806,,,,,,,0.36496227979660034,0.06250584125518799,0.4374972879886627,-1.9541668891906738,0.4494406580924988,-3.2198545932769775
1764808591.371024,1.379282712959498,4.10855234015882,-2.499119247701764,1.7275832891464233,-1.5072818994522095,2.1741580963134766,,,,,,
1764808591.377836,,,,,,,0.4203013777732849,0.05847412347793579,0.46816369891166687,-2.199942111968994,0.4896045923233032,-3.1969614028930664
1764808591.381076,1.1281145337440073,4.884869305855036,-2.3687919090896843,1.8814831972122192,-1.8804799318313599,2.0771148204803467,,,,,,
1764808591.387867,,,,,,,0.44083696603775024,0.07152235507965088,0.49225053191185,-2.342646360397339,0.6317585110664368,-3.1806938648223877
1764808591.391128,0.6861483267322183,5.31047430678308,-2.2058558478176593,2.0697014331817627,-2.130006790161133,2.019118547439575,,,,,,
1764808591.397897,,,,,,,0.435669481754303,0.09522494673728943,0.46205657720565796,-2.410536050796509,0.745461642742157,-3.111614942550659
1764808591.401181,0.2121346842050552,5.5615077537029975,-1.6900766549676656,2.2738680839538574,-2.272615432739258,1.9896506071090698,,,,,,
1764808591.407927,,,,,,,0.42428022623062134,0.043443188071250916,0.38479599356651306,-2.469869613647461,0.7794380187988281,-3.081883192062378
1764808591.411233,-0.40984950565248723,5.2094654171139,-1.0586217491924763,2.4244816303253174,-2.339386224746704,1.9506338834762573,,,,,,
1764808591.417957,,,,,,,0.38201266527175903,-0.02338947355747223,0.3234812617301941,-2.4856202602386475,0.9025111794471741,-3.0647988319396973
1764808591.421285,-1.3016102752141654,4.0970957111209625,-0.43947453632652755,2.4709064960479736,-2.2896921634674072,1.8565185070037842,,,,,,
1764808591.427987,,,,,,,0.3110582232475281,-0.006813891232013702,0.2685774564743042,-2.328763246536255,1.1441067457199097,-2.9638891220092773
1764808591.431337,-2.1849438465617594,2.8041490732252594,-0.14895079053938387,2.4427742958068848,-2.082104206085205,1.7096021175384521,,,,,,
1764808591.438017,,,,,,,0.24970877170562744,0.08187434077262878,0.23347339034080505,-1.8964884281158447,1.5366489887237549,-2.869788646697998
1764808591.44139,-2.755430050502717,1.9869272656887769,-0.10127309356331825,2.391709566116333,-1.6961960792541504,1.5878902673721313,,,,,,
1764808591.448047,,,,,,,0.2522120475769043,0.18694038689136505,0.18410181999206543,-1.2967861890792847,1.9533723592758179,-2.7783541679382324
1764808591.451442,-2.615170808202028,2.546689977172017,0.17454525052309036,2.402317762374878,-1.2532330751419067,1.5639604330062866,,,,,,
1764808591.458077,,,,,,,0.37319517135620117,0.19669264554977417,0.09685766696929932,-0.7834385633468628,2.0309560298919678,-2.774953603744507
1764808591.461494,-2.2440515768297016,4.053296901404857,0.5240592376783489,2.5347158908843994,-0.8805259466171265,1.6551003456115723,,,,,,
1764808591.468107,,,,,,,0.510056734085083,0.13039417564868927,0.06210479140281677,-0.33793947100639343,1.9356375932693481,-2.785595655441284
1764808591.471547,-2.345752102024853,4.983046186968684,0.9206541249603033,2.701373815536499,-0.5586646199226379,1.8040484189987183,,,,,,
1764808591.478137,,,,,,,0.5620608329772949,0.02789987251162529,0.005918040871620178,0.14569403231143951,1.8098386526107788,-2.7274084091186523
1764808591.481599,-2.950475068219006,4.727002802932262,1.114441836091876,2.822422742843628,-0.1757928729057312,1.8821234703063965,,,,,,
1764808591.488167,,,,,,,0.49186038970947266,-0.0011544786393642426,-0.009972542524337769,0.5426360964775085,1.8347487449645996,-2.690307140350342
1764808591.491651,-3.6678839178726075,3.3204075740247965,1.153069965171814,2.8298184871673584,0.2562679946422577,1.8455579280853271,,,,,,
1764808591.498197,,,,,,,0.35898357629776,0.03536850959062576,0.00015217065811157227,1.02841055393219,2.0810787677764893,-2.6067862510681152
1764808591.501703,-3.797808228641748,1.8193273042589424,1.6055536206752061,2.71631121635437,0.660972535610199,1.7512677907943726,,,,,,
1764808591.508227,,,,,,,0.30206429958343506,0.03691086918115616,-0.05479210615158081,1.5071643590927124,2.2534937858581543,-2.5225017070770264
1764808591.511756,-3.2577108793541787,1.2520406270116566,2.1633608141764995,2.58170747756958,0.9728537201881409,1.6740288734436035,,,,,,
1764808591.518258,,,,,,,0.3531332015991211,0.040850937366485596,-0.10140466690063477,1.8857543468475342,2.2853872776031494,-2.5394256114959717
1764808591.521808,-2.456807461673021,1.4306027119606732,2.416516367816925,2.4199416637420654,1.1308683156967163,1.6803613901138306,,,,,,
1764808591.528288,,,,,,,0.4743768572807312,-0.01227480173110962,-0.1673176884651184,2.1596384048461914,2.1599059104919434,-2.447108268737793
1764808591.53186,-1.5967038131348787,2.2360978413462638,2.834521999657154,2.2415075302124023,1.0742119550704956,1.7475252151489258,,,,,,
1764808591.538318,,,,,,,0.6190951466560364,-0.24395303428173065,-0.20789635181427002,2.0246753692626953,1.7902287244796753,-2.4222941398620605
1764808591.541913,-0.9435036701500416,2.939695607790351,3.0847467605426906,2.094804048538208,0.8394253849983215,1.789029836654663,,,,,,
1764808591.548348,,,,,,,0.6660850048065186,-0.3895433247089386,-0.13395898044109344,1.6625735759735107,1.4717838764190674,-2.3887240886688232
1764808591.551965,-0.680341101758182,2.9377684391200543,3.116590928570926,2.0064585208892822,0.5367427468299866,1.7295433282852173,,,,,,
1764808591.558378,,,,,,,0.6039952039718628,-0.4255472719669342,-0.05261027812957764,1.3336490392684937,1.2817431688308716,-2.219649076461792
1764808591.562017,-0.6659449121370912,2.5163819326698778,2.7657974229991433,1.9911843538284302,0.24976089596748352,1.5752938985824585,,,,,,
1764808591.568408,,,,,,,0.4763350486755371,-0.44189947843551636,0.01878459006547928,1.0815783739089966,1.2611864805221558,-2.0608651638031006
1764808591.572069,-0.7826696957238019,2.0321867956072093,2.3042300050690767,1.9927994012832642,0.007548613008111715,1.389906644821167,,,,,,
1764808591.578438,,,,,,,0.3569961190223694,-0.4332859516143799,0.05494195967912674,0.877321183681488,1.4277591705322266,-1.9561306238174438
1764808591.582122,-0.8451093468934298,2.0419044720232487,2.2891174838721753,1.9456697702407837,-0.2078973948955536,1.2523295879364014,,,,,,
1764808591.588468,,,,,,,0.3555299639701843,-0.3915235102176666,-0.008811935782432556,0.7258535027503967,1.4501539468765259,-1.8549927473068237
1764808591.592174,-0.8071955035626888,2.734376448819041,2.655483529368043,1.9226888418197632,-0.3925740122795105,1.1766505241394043,,,,,,
1764808591.598498,,,,,,,0.4464595913887024,-0.33051568269729614,-0.06050306558609009,0.6739344000816345,1.3416587114334106,-1.8420377969741821
1764808591.602226,-0.9674632224082946,3.1951883722066876,2.8811083942651745,1.9157638549804688,-0.5333911180496216,1.1814262866973877,,,,,,
1764808591.608528,,,,,,,0.5218431949615479,-0.26587727665901184,-0.10318243503570557,0.7000366449356079,1.2577967643737793,-1.8309321403503418
1764808591.612278,-1.2578075199753045,3.5062639076352116,3.260751854485273,1.9112807512283325,-0.6005368828773499,1.2283068895339966,,,,,,
1764808591.618558,,,,,,,0.5641152262687683,-0.22861799597740173,-0.13636094331741333,0.7327815294265747,1.1044474840164185,-1.81715726852417
1764808591.622331,-1.811206249384582,3.7204543553262948,3.525155655109882,1.9358985424041748,-0.5537081360816956,1.2848026752471924,,,,,,
1764808591.628588,,,,,,,0.554521918296814,-0.22615042328834534,-0.12800633907318115,0.7333353757858276,0.9547134041786194,-1.8858096599578857
1764808591.632383,-2.5425787424609063,3.5263965950816867,3.4960932267546654,1.983467698097229,-0.3860197961330414,1.3217878341674805,,,,,,
1764808591.638618,,,,,,,0.47912222146987915,-0.2337220311164856,-0.10956740379333496,0.6968972086906433,0.9009953141212463,-1.9764591455459595
1764808591.642435,-3.3152164351224895,3.0545313627600668,3.4012031122267246,2.0130298137664795,-0.10033798217773438,1.3298237323760986,,,,,,
1764808591.648649,,,,,,,0.3816463351249695,-0.2529122233390808,-0.08834707736968994,0.6675360202789307,0.9290552139282227,-2.002664804458618
1764808591.652488,-3.948652285581827,2.413447043374181,3.2667326824605465,2.0155580043792725,0.26668158173561096,1.2959775924682617,,,,,,
1764808591.658679,,,,,,,0.2994832396507263,-0.28707996010780334,-0.06640255451202393,0.6696311235427856,1.0172227621078491,-2.002095937728882
1764808591.66254,-4.290485947367548,1.6806547466278074,3.0198002411186695,1.9889050722122192,0.7020092606544495,1.2365728616714478,,,,,,
1764808591.668709,,,,,,,0.23601818084716797,-0.26770931482315063,-0.05015605688095093,0.741979718208313,1.147770643234253,-1.9905109405517578
1764808591.672592,-4.341574621830881,1.0228712213754654,2.7010429190158844,1.930739164352417,1.1505331993103027,1.1722321510314941,,,,,,
1764808591.678739,,,,,,,0.21274679899215698,-0.21695420145988464,-0.07097470760345459,0.9598808884620667,1.2881991863250732,-1.9289785623550415
1764808591.682644,-4.000690515854955,0.695773940950632,2.5671055732131003,1.8371280431747437,1.5240716934204102,1.1324127912521362,,,,,,
1764808591.688769,,,,,,,0.2473289966583252,-0.1840452253818512,-0.12088334560394287,1.209786295890808,1.3168540000915527,-1.828235387802124
1764808591.692697,-3.348256242676079,0.8046873201340436,2.667333541637659,1.7413194179534912,1.7734295129776,1.1356253623962402,,,,,,
1764808591.698799,,,,,,,0.3084549307823181,-0.1775657832622528,-0.14051449298858643,1.4427942037582397,1.2060794830322266,-1.7710515260696411
1764808591.702749,-2.6335741876378655,1.0121949290603398,2.6691432214081288,1.6626659631729126,1.905625343322754,1.1742238998413086,,,,,,
1764808591.708829,,,,,,,0.3356062173843384,-0.20673102140426636,-0.12855517864227295,1.6592875719070435,1.1006958484649658,-1.7297170162200928
1764808591.712801,-2.0306901273086666,1.0694009173601866,2.601228792089224,1.5945713520050049,1.9464837312698364,1.2211356163024902,,,,,,
1764808591.718859,,,,,,,0.31268805265426636,-0.2420654296875,-0.1045386791229248,1.8912627696990967,1.0718839168548584,-1.6454578638076782
1764808591.722854,-1.6135890430927275,0.9810890121787786,2.493585578972101,1.5381120443344116,1.9268012046813965,1.2452257871627808,,,,,,
1764808591.728889,,,,,,,0.2651386857032776,-0.25304216146469116,-0.07116532325744629,2.0589988231658936,1.050777792930603,-1.5600054264068604
1764808591.732906,-1.3707105533167718,0.8597399297922849,2.3382564855724572,1.4940924644470215,1.8707187175750732,1.23403000831604,,,,,,
1764808591.738919,,,,,,,0.22115790843963623,-0.26481860876083374,-0.03878152370452881,2.115358352661133,1.0177115201950073,-1.488457441329956
1764808591.742958,-1.2726634360626339,0.7146177576303482,2.1310072353214022,1.4634737968444824,1.7925317287445068,1.1841250658035278,,,,,,
1764808591.748949,,,,,,,0.1995927095413208,-0.3098525404930115,-0.009627342224121094,2.0713040828704834,1.0015109777450562,-1.3991076946258545
1764808591.75301,-1.2916674117401241,0.5449146864414215,1.9157482816159723,1.425342082977295,1.702903151512146,1.1089634895324707,,,,,,
1764808591.758979,,,,,,,0.18176370859146118,-0.34565675258636475,0.011776328086853027,1.9948790073394775,1.0575659275054932,-1.302316427230835
1764808591.763063,-1.3177213059291242,0.41181203789710996,1.9069231701254843,1.3393843173980713,1.5736455917358398,1.0291805267333984,,,,,,
1764808591.769009,,,,,,,0.18287163972854614,-0.33332979679107666,-0.005997300148010254,1.9330074787139893,1.1472585201263428,-1.1787595748901367
1764808591.773115,-1.2526175501167773,0.6222925251543522,2.254221527057886,1.221768856048584,1.3907880783081055,0.9553788900375366,,,,,,
1764808591.77904,,,,,,,0.2435428500175476,-0.30471521615982056,-0.04858899116516113,1.8750805854797363,1.0710391998291016,-1.0653717517852783
1764808591.783168,-1.102755489951372,1.0904150638163088,2.354274138915539,1.136717677116394,1.2021081447601318,0.8781022429466248,,,,,,
1764808591.78907,,,,,,,0.31415826082229614,-0.30313968658447266,-0.0660443902015686,1.7827136516571045,0.867765486240387,-1.0193146467208862
1764808591.79322,-1.0259671415641902,1.3711615119546652,2.0663678821504115,1.0856553316116333,1.0259932279586792,0.8251609802246094,,,,,,
1764808591.7991,,,,,,,0.3303868770599365,-0.31675732135772705,-0.04965943098068237,1.675684928894043,0.7244421243667603,-0.960718035697937
1764808591.803272,-1.0135521888881922,1.4670593422204254,1.850565323087573,1.0406311750411987,0.8734806180000305,0.783266544342041,,,,,,
1764808591.80913,,,,,,,0.2954648733139038,-0.3349530100822449,-0.021749913692474365,1.5453505516052246,0.6587874889373779,-0.8647187948226929
1764808591.813324,-1.1049553380832076,1.4234738829940556,1.7254706244319675,1.0085002183914185,0.7585734128952026,0.7425825595855713,,,,,,
1764808591.81916,,,,,,,0.24344652891159058,-0.3493683338165283,0.004312098026275635,1.3596831560134888,0.620079755783081,-0.780500590801239
1764808591.823376,-1.2512927312538027,1.329292208996415,1.540358971709013,0.99569171667099,0.6802636981010437,0.6886903047561646,,,,,,
1764808591.82919,,,,,,,0.19587838649749756,-0.34888654947280884,0.020889997482299805,1.1200125217437744,0.5988863110542297,-0.7339400053024292
1764808591.833429,-1.3944061939418315,1.1511200001478195,1.4314093521684408,0.9915937185287476,0.6117135286331177,0.6242377758026123,,,,,,
1764808591.83922,,,,,,,0.163537859916687,-0.3411334753036499,0.024964869022369385,0.9059642553329468,0.5786183476448059,-0.6837007999420166
1764808591.843481,-1.4883391538754105,0.7926894238263368,1.4637608851969242,0.9777697920799255,0.554449200630188,0.5444279313087463,,,,,,
1764808591.84925,,,,,,,0.14227169752120972,-0.3468966484069824,0.019124450162053108,0.745070219039917,0.5526240468025208,-0.6127196550369263
1764808591.853533,-1.6146207242280244,0.39386137066483495,1.5083710112959146,0.9295289516448975,0.5363949537277222,0.4570978879928589,,,,,,
1764808591.85928,,,,,,,0.11790281534194946,-0.3280492424964905,0.005295455455780029,0.6072779893875122,0.5269200205802917,-0.5835548639297485
1764808591.863585,-1.7292758619338273,0.016987375158071517,1.5444266595393419,0.8463818430900574,0.5600941777229309,0.37299230694770813,,,,,,
1764808591.86931,,,,,,,0.08877921104431152,-0.2932741045951843,-0.022002993151545525,0.4888414442539215,0.5102185010910034,-0.5688478350639343
1764808591.873638,-1.7770774775505065,-0.2706120076149702,1.5203613088190555,0.7406972050666809,0.6074232459068298,0.29788070917129517,,,,,,
1764808591.87934,,,,,,,0.07273918390274048,-0.26698702573776245,-0.0471189022064209,0.39388802647590637,0.5066112875938416,-0.5235701203346252
1764808591.88369,-1.7934335690677166,-0.4596463867396116,1.4096020095080137,0.6282551288604736,0.6584446430206299,0.23357203602790833,,,,,,
1764808591.88937,,,,,,,0.06988054513931274,-0.23987561464309692,-0.05964404344558716,0.3395076394081116,0.49861884117126465,-0.4404493272304535
1764808591.893742,-1.6818015785753726,-0.42459027092754836,1.241952363717556,0.5294981598854065,0.7153680920600891,0.18207448720932007,,,,,,
1764808591.8994,,,,,,,0.07615083456039429,-0.21463847160339355,-0.06032395362854004,0.3453460931777954,0.47048813104629517,-0.3616839349269867
1764808591.903795,-1.48530928466022,-0.1948462802737951,0.9864028276126832,0.4558822810649872,0.7818758487701416,0.15092197060585022,,,,,,
1764808591.909431,,,,,,,0.08651900291442871,-0.18770653009414673,-0.052745044231414795,0.39826303720474243,0.4291103482246399,-0.299832284450531
1764808591.913847,-1.213645137643814,0.06834814456105232,0.7352443660736083,0.40510594844818115,0.8353017568588257,0.13780909776687622,,,,,,
1764808591.919461,,,,,,,0.08984780311584473,-0.15753483772277832,-0.04017293453216553,0.48786216974258423,0.3917112946510315,-0.22015824913978577
1764808591.923899,-0.9546323824077844,0.27893559932410716,0.6039934828758239,0.3705068826675415,0.8558184504508972,0.13550621271133423,,,,,,
1764808591.929491,,,,,,,0.0897565484046936,-0.14861351251602173,-0.02811485528945923,0.5887735486030579,0.3490775525569916,-0.13450485467910767
1764808591.933951,-0.7633306428730487,0.34868718094229695,0.5152846873313188,0.33604156970977783,0.8367449045181274,0.12339522689580917,,,,,,
1764808591.939521,,,,,,,0.08513575792312622,-0.1525578498840332,-0.013833045028150082,0.6359437108039856,0.3090188205242157,-0.09279176592826843
1764808591.944004,-0.6635171004682779,0.3147352269798517,0.5088543620228767,0.300611287355423,0.7778743505477905,0.09220358729362488,,,,,,
1764808591.949551,,,,,,,0.0751529335975647,-0.14948195219039917,0.0010550031438469887,0.6273325085639954,0.2816638946533203,-0.06730397790670395
1764808591.954056,-0.6311147140353918,0.23150632415115832,0.5685282748062164,0.2633403241634369,0.6808271408081055,0.04847687855362892,,,,,,
1764808591.959581,,,,,,,0.06839430332183838,-0.15283602476119995,0.0032262802124023438,0.5780712366104126,0.24885988235473633,-0.03518785908818245
1764808591.964108,-0.5807686746329069,0.14942776040136813,0.63002932995148,0.22019104659557343,0.5443992018699646,-0.002679459983482957,,,,,,
1764808591.969611,,,,,,,0.06491392850875854,-0.15771210193634033,-0.010232271626591682,0.5033973455429077,0.21734057366847992,-0.0012087859213352203
1764808591.974161,-0.5114624986946582,0.11051555368304251,0.7036012735754251,0.1640271097421646,0.3744327425956726,-0.050522081553936005,,,,,,
1764808591.979641,,,,,,,0.06364566087722778,-0.15639513731002808,-0.022002456709742546,0.43536636233329773,0.1858723908662796,0.033675163984298706
1764808591.984213,-0.38000177213847636,0.023319500789046287,0.7050948000688105,0.1039523258805275,0.19777682423591614,-0.09467583894729614,,,,,,
1764808591.989671,,,,,,,0.06355160474777222,-0.1538512110710144,-0.014772176742553711,0.35805174708366394,0.13895761966705322,0.07760080695152283
1764808591.994265,-0.22727906184494495,-0.05805237599611282,0.5988094313014298,0.053641486912965775,0.050080034881830215,-0.1291685551404953,,,,,,
1764808591.999701,,,,,,,0.05728459358215332,-0.15441322326660156,-0.0010253190994262695,0.26142188906669617,0.08223973214626312,0.12370917946100235
1764808592.004317,-0.13671674738824366,-0.11676643077135085,0.409484471732378,0.014143492095172405,-0.06349242478609085,-0.15620413422584534,,,,,,
1764808592.009731,,,,,,,0.04550433158874512,-0.1661326289176941,0.014077363535761833,0.13270880281925201,0.05010709911584854,0.16928298771381378
1764808592.01437,-0.14335691605508327,-0.11104629955887795,0.3064058631170541,-0.01642720028758049,-0.14796949923038483,-0.1832336187362671,,,,,,
1764808592.019761,,,,,,,0.03386157751083374,-0.1796756386756897,0.024327455088496208,-0.01006325613707304,0.030631134286522865,0.2275119423866272
1764808592.024422,-0.24846155060529707,-0.05632043763697147,0.2709078487563878,-0.04254165291786194,-0.21406975388526917,-0.21915975213050842,,,,,,
1764808592.029791,,,,,,,0.02666449546813965,-0.18153125047683716,0.02630937099456787,-0.13765449821949005,0.015667632222175598,0.2839770019054413
1764808592.034475,-0.3925754225075245,-0.029778467670083044,0.23377894525825976,-0.06873410940170288,-0.26165324449539185,-0.2618851065635681,,,,,,
1764808592.039822,,,,,,,0.026063621044158936,-0.16641932725906372,0.02203810028731823,-0.22443200647830963,0.0050144558772444725,0.32097259163856506
1764808592.044527,-0.5493383481025695,-0.02762099737524986,0.23008542450256644,-0.10089169442653656,-0.29863056540489197,-0.30508264899253845,,,,,,
1764808592.049853,,,,,,,0.02583688497543335,-0.13642215728759766,0.011521756649017334,-0.27632811665534973,-0.002246652962639928,0.3405833840370178
1764808592.05458,-0.6018564708471298,-0.01859890200793743,0.3165443952936679,-0.1305912584066391,-0.3329453766345978,-0.3343718349933624,,,,,,
1764808592.059883,,,,,,,0.030391335487365723,-0.10103875398635864,0.006676733493804932,-0.3004606068134308,-0.013479332439601421,0.3676128685474396
1764808592.064632,-0.583422404012084,0.014199205744266509,0.38962183339893813,-0.14237989485263824,-0.3598648011684418,-0.350981205701828,,,,,,
1764808592.069913,,,,,,,0.0377429723739624,-0.0774964690208435,0.007924018427729607,-0.3090868294239044,-0.04230805113911629,0.387666255235672
1764808592.074684,-0.5751432359665631,0.07100479654967784,0.3665806380946189,-0.1478063464164734,-0.36540496349334717,-0.35884419083595276,,,,,,
1764808592.079943,,,,,,,0.03852897882461548,-0.07371503114700317,0.0028519034385681152,-0.32720938324928284,-0.06898254156112671,0.3853687644004822
1764808592.084737,-0.5700657865718006,0.08764788831472396,0.3647065878510475,-0.15775012969970703,-0.35890093445777893,-0.36283376812934875,,,,,,
1764808592.089973,,,,,,,0.030694961547851562,-0.07494157552719116,0.0006344327703118324,-0.3573419451713562,-0.0644754096865654,0.37774989008903503
1764808592.094789,-0.55922202873528,0.11011866331994533,0.41046120781004425,-0.17197300493717194,-0.33436548709869385,-0.37242862582206726,,,,,,
1764808592.100003,,,,,,,0.023334145545959473,-0.06394726037979126,0.0034477701410651207,-0.38866791129112244,-0.042243603616952896,0.3797350227832794
1764808592.104841,-0.5530488930583,0.10935527773201464,0.3711480921406299,-0.17806056141853333,-0.2889218032360077,-0.39042478799819946,,,,,,
1764808592.110033,,,,,,,0.02190113067626953,-0.04353255033493042,0.003928661346435547,-0.39076799154281616,-0.03228817507624626,0.38120928406715393
1764808592.114894,-0.4929410458371043,0.13138240062296389,0.27488208614960313,-0.17399577796459198,-0.2473602294921875,-0.40084919333457947,,,,,,
1764808592.120062,,,,,,,0.024358391761779785,-0.026295006275177002,0.004195452202111483,-0.3841327428817749,-0.029660968109965324,0.37979942560195923
1764808592.124946,-0.3874564720585942,0.20489830321073532,0.27266192588210103,-0.16031453013420105,-0.215896338224411,-0.3916610777378082,,,,,,
1764808592.130093,,,,,,,0.02501368522644043,-0.018652677536010742,0.007072746753692627,-0.3768313527107239,-0.02669180929660797,0.381858229637146
1764808592.134998,-0.3053109805524349,0.2207405999869108,0.26279636542797086,-0.1416841298341751,-0.1848001927137375,-0.37785738706588745,,,,,,
1764808592.140123,,,,,,,0.02141857147216797,-0.023952841758728027,0.00791943073272705,-0.36946532130241394,-0.01952071487903595,0.3722569942474365
1764808592.14505,-0.29561960762143136,0.20539280872941015,0.2569494660306722,-0.13241450488567352,-0.15634357929229736,-0.36783304810523987,,,,,,
1764808592.150153,,,,,,,0.012887656688690186,-0.029152333736419678,0.0035864117089658976,-0.37614744901657104,0.0014261126052588224,0.35680559277534485
1764808592.155103,-0.3472086328223348,0.12406769369542597,0.30847550899796183,-0.12963637709617615,-0.1295667439699173,-0.36583825945854187,,,,,,
1764808592.160183,,,,,,,0.006622731685638428,-0.02208036184310913,0.0016573667526245117,-0.3713119328022003,0.024200133979320526,0.34406185150146484
1764808592.165155,-0.35854134321957826,0.04489829539060593,0.3282990574300289,-0.12796416878700256,-0.10640789568424225,-0.3682934045791626,,,,,,
1764808592.170213,,,,,,,0.006207942962646484,-0.009052157402038574,-0.002841472625732422,-0.33035364747047424,0.03232996538281441,0.3457518517971039
1764808592.175207,-0.3138859166741371,0.009497311663627625,0.29765549736320973,-0.12688179314136505,-0.082588329911232,-0.3692305386066437,,,,,,
1764808592.180244,,,,,,,0.006083130836486816,0.0054929256439208984,-0.013092398643493652,-0.2594909369945526,0.03898201137781143,0.3562556207180023
1764808592.185259,-0.24084786073118447,-0.016821955463290215,0.26693185779750345,-0.13151143491268158,-0.06678593158721924,-0.36214679479599,,,,,,
1764808592.190274,,,,,,,0.002190828323364258,0.012268126010894775,-0.022263169288635254,-0.17536167800426483,0.04455094784498215,0.36832332611083984
1764808592.195312,-0.1753583204716444,-0.04843114569187164,0.24182255098223684,-0.145357146859169,-0.05438481271266937,-0.3499565124511719,,,,,,
1764808592.200304,,,,,,,0.004895925521850586,0.009825348854064941,-0.02516186237335205,-0.09565673023462296,0.042433202266693115,0.3748683035373688
1764808592.205364,-0.12021890931278466,-0.0569072976142168,0.180534919391945,-0.15569260716438293,-0.03185606747865677,-0.3388324975967407,,,,,,
1764808592.210334,,,,,,,0.008455812931060791,0.0015969276428222656,-0.023140788078308105,-0.029911527410149574,0.027639340609312057,0.38033396005630493
1764808592.215416,-0.07717851674854755,-0.06136252345740795,0.09092011491842568,-0.16706494987010956,-0.004066311288625002,-0.32595276832580566,,,,,,
1764808592.220364,,,,,,,0.008893728256225586,-0.0022829174995422363,-0.013960720039904118,-0.0006061043823137879,0.015421290881931782,0.38367971777915955
1764808592.225469,-0.07752075431495904,-0.036486440876126285,0.0855115338731557,-0.16796615719795227,0.02309420332312584,-0.3218275308609009,,,,,,
1764808592.230394,,,,,,,0.004351913928985596,-0.005143404006958008,-0.002241254784166813,0.012138350866734982,0.01158713735640049,0.39700376987457275
1764808592.235521,-0.08620441150814294,-0.04506313056349754,0.061797992265224456,-0.16071368753910065,0.04833320900797844,-0.31786298751831055,,,,,,
1764808592.240424,,,,,,,-0.0013747215270996094,-0.011300384998321533,0.005663515999913216,0.01666758954524994,0.013288631103932858,0.4049426317214966
1764808592.245573,-0.16594722578674553,-0.045295185753703116,0.02806932566463947,-0.14880722761154175,0.07911242544651031,-0.3232329785823822,,,,,,
1764808592.250454,,,,,,,-0.007032454013824463,-0.019507527351379395,0.00736534409224987,0.0047579677775502205,0.0183212049305439,0.4057443141937256
1764808592.255625,-0.22895137897133827,-0.06098726040422916,0.01972710232026875,-0.14857648313045502,0.10959532856941223,-0.3328808546066284,,,,,,
1764808592.260484,,,,,,,-0.013067543506622314,-0.02910459041595459,0.007265805266797543,-0.02938242442905903,0.02886492758989334,0.3878369629383087
1764808592.265678,-0.22712737841457128,-0.11553484314978121,0.10456102919280529,-0.15768182277679443,0.1204112246632576,-0.3468936085700989,,,,,,
1764808592.270514,,,,,,,-0.01706850528717041,-0.02061784267425537,0.00793051440268755,-0.09001939743757248,0.04845913499593735,0.3703792095184326
1764808592.27573,-0.19580635747760533,-0.15641045889556407,0.16122859976701437,-0.16518743336200714,0.11036761105060577,-0.36118265986442566,,,,,,
1764808592.280544,,,,,,,-0.013076484203338623,-0.0003883838653564453,0.005535125732421875,-0.1090088039636612,0.053331390023231506,0.3807644844055176
1764808592.285782,-0.12251900294870137,-0.14249065461456775,0.11664536167494952,-0.16850173473358154,0.08801250159740448,-0.36372438073158264,,,,,,
1764808592.290574,,,,,,,-0.002274632453918457,0.009271442890167236,-0.0012143850326538086,-0.08925794810056686,0.04349527135491371,0.39226993918418884
1764808592.295835,-0.005420856004953384,-0.057222939434647555,0.005382862082123756,-0.1658940613269806,0.06180652976036072,-0.35569265484809875,,,,,,
1764808592.300604,,,,,,,0.0005311965942382812,0.008295595645904541,-0.003576040267944336,-0.06335818022489548,0.032141681760549545,0.3769280016422272
1764808592.305887,0.16484160263240336,0.04425122965872288,-0.05797752066161483,-0.16551215946674347,0.03486599028110504,-0.33432480692863464,,,,,,
1764808592.310634,,,,,,,0.0027017593383789062,0.007835030555725098,0.006320236250758171,-0.07346601039171219,0.026361821219325066,0.3517964780330658
1764808592.315939,0.27958091149032116,0.10597089599072933,-0.057903322914242744,-0.15765529870986938,0.000988450599834323,-0.311850905418396,,,,,,
1764808592.320665,,,,,,,0.006511986255645752,0.01508331298828125,0.017255065962672234,-0.08139584213495255,0.020939093083143234,0.34238380193710327
1764808592.325991,0.27215836027413604,0.12029460489749907,-0.038598976050689814,-0.13678720593452454,-0.028671644628047943,-0.2980603873729706,,,,,,
1764808592.330695,,,,,,,0.00721663236618042,0.024775981903076172,0.021449923515319824,-0.1004350483417511,0.01192456018179655,0.3417244255542755
1764808592.336044,0.15040741908848285,0.17071137144863605,-0.07934241678416729,-0.1165759488940239,-0.04939423128962517,-0.2904607951641083,,,,,,
1764808592.340725,,,,,,,0.006663978099822998,0.03275948762893677,0.019723892211914062,-0.12284288555383682,0.009959946386516094,0.3256218731403351
1764808592.346096,0.02662058816105127,0.2060790374279022,-0.12094934247918426,-0.10611946880817413,-0.04769841209053993,-0.28101101517677307,,,,,,
1764808592.350755,,,,,,,0.003996312618255615,0.027210652828216553,0.020514966920018196,-0.1453663408756256,0.017533177509903908,0.3075698912143707
1764808592.356148,-0.020535423028469085,0.19489888724386692,-0.11475801355838774,-0.1020972952246666,-0.0290959682315588,-0.27264124155044556,,,,,,
1764808592.360785,,,,,,,0.003844916820526123,0.023939907550811768,0.020101189613342285,-0.16188406944274902,0.021966274827718735,0.29297924041748047
1764808592.366201,-0.0404702498152852,0.13420505682826042,-0.11298632771074771,-0.10029534995555878,-0.002627057023346424,-0.2653001844882965,,,,,,
1764808592.370815,,,,,,,0.004778683185577393,0.025647401809692383,0.019234417006373405,-0.16075371205806732,0.025039296597242355,0.28280967473983765
1764808592.376253,-0.05026595990359783,0.08691782047450541,-0.09958148721456526,-0.10349699854850769,0.023917201906442642,-0.26119571924209595,,,,,,
1764808592.380845,,,,,,,0.0064414143562316895,0.02355062961578369,0.014934539794921875,-0.1459590494632721,0.027986882254481316,0.2768050730228424
1764808592.386305,-0.047857729718089104,0.10341945794224738,-0.13216913055386392,-0.10409557819366455,0.049127958714962006,-0.2600909173488617,,,,,,
1764808592.390875,,,,,,,0.010601639747619629,0.0197107195854187,0.010061502456665039,-0.14387072622776031,0.027366366237401962,0.2563752233982086
1764808592.396357,-0.03297112623155117,0.1414823543548584,-0.13864797117915004,-0.10588256269693375,0.06088155508041382,-0.2646574378013611,,,,,,
1764808592.400905,,,,,,,0.0088767409324646,0.024513721466064453,0.013374686241149902,-0.13954736292362213,0.0308428555727005,0.250785768032074
1764808592.40641,0.033650925189256664,0.13311667706966399,-0.09253390679061413,-0.1033441349864006,0.06755336374044418,-0.2664535939693451,,,,,,
1764808592.410935,,,,,,,0.006731629371643066,0.02828192710876465,0.013968706130981445,-0.10216566175222397,0.033777929842472076,0.26412534713745117
1764808592.416462,0.09593991584181785,0.10465689078271388,-0.11034838042259215,-0.09442414343357086,0.07241816073656082,-0.2612854838371277,,,,,,
1764808592.420965,,,,,,,0.004865169525146484,0.03422987461090088,0.01107490062713623,-0.0579979345202446,0.04039641469717026,0.26882341504096985
1764808592.426514,0.14700345586389302,0.10329553930163383,-0.12167524560093879,-0.08650458604097366,0.07115840166807175,-0.25611960887908936,,,,,,
1764808592.430995,,,,,,,-0.0014027953147888184,0.035732150077819824,0.009592056274414062,-0.02210652269423008,0.05281420424580574,0.26580917835235596
1764808592.436567,0.1830292934909463,0.10541735376119613,-0.09246610225141048,-0.0835423544049263,0.0642634779214859,-0.25007373094558716,,,,,,
1764808592.441025,,,,,,,-0.001950979232788086,0.03201425075531006,0.005208967253565788,0.015627272427082062,0.05920365825295448,0.27522799372673035
1764808592.446619,0.19924626879841087,0.09387129287421703,-0.06402268257737159,-0.08200889825820923,0.05753565579652786,-0.24881139397621155,,,,,,
1764808592.451056,,,,,,,0.0036644935607910156,0.02009415626525879,0.0015571154654026031,0.0424952358007431,0.05439399182796478,0.28181737661361694
1764808592.456671,0.1678589046269655,0.03991524628102779,-0.05033727157413959,-0.08488857746124268,0.06106087937951088,-0.24826757609844208,,,,,,
1764808592.461086,,,,,,,0.0038893818855285645,0.013603627681732178,0.003655914217233658,0.038048289716243744,0.0546664334833622,0.2695295810699463
1764808592.466723,0.12827595904022454,-0.00703355189859867,-0.012604008974693715,-0.08937643468379974,0.0691470354795456,-0.25123247504234314,,,,,,
1764808592.471116,,,,,,,-0.00047832727432250977,0.015180885791778564,0.004726771265268326,0.03314968943595886,0.05832907557487488,0.27731600403785706
1764808592.476776,0.0886547272697091,-0.04969079036414623,-0.015008768561482429,-0.0874674841761589,0.08092593401670456,-0.2546288073062897,,,,,,
1764808592.481146,,,,,,,-0.005253255367279053,0.015274643898010254,0.0030221939086914062,0.0381242074072361,0.05959594249725342,0.30213823914527893
1764808592.486828,0.048344344191253184,-0.07985445795953273,-0.038306605507992204,-0.08433320373296738,0.10068990290164948,-0.26096928119659424,,,,,,
1764808592.491176,,,,,,,-0.011591553688049316,0.009362936019897461,0.0008072853088378906,0.053647756576538086,0.06663387268781662,0.31144028902053833
1764808592.49688,0.04628419679105281,-0.09192541950345039,-0.061151547587849193,-0.08586426079273224,0.12448205053806305,-0.26537150144577026,,,,,,
1764808592.501206,,,,,,,-0.019295811653137207,0.00582459568977356,0.0005903281271457672,0.057253941893577576,0.07492829114198685,0.30725884437561035
1764808592.506933,0.06748275990337133,-0.1265460665076971,-0.0376928940564394,-0.09540653228759766,0.1407996565103531,-0.26975879073143005,,,,,,
1764808592.511236,,,,,,,-0.01987069845199585,0.014429956674575806,-0.0003626365214586258,0.06948691606521606,0.07621593028306961,0.31648382544517517
1764808592.516985,0.08355681960880756,-0.16956220141351222,-0.03098787999246269,-0.1029033362865448,0.1395956426858902,-0.27577805519104004,,,,,,
1764808592.521266,,,,,,,-0.01693958044052124,0.016156435012817383,-0.006214264780282974,0.09914787113666534,0.06728848069906235,0.3300446569919586
1764808592.527037,0.13568652755767105,-0.18764263250529764,-0.06851707138717174,-0.10811448097229004,0.12423262000083923,-0.27027255296707153,,,,,,
1764808592.531296,,,,,,,-0.01364123821258545,0.015346497297286987,-0.00887763686478138,0.10984036326408386,0.058318424969911575,0.31381163001060486
1764808592.537089,0.19016104506701229,-0.16366846719980238,-0.03349840150866657,-0.1138266921043396,0.09743722528219223,-0.2623472511768341,,,,,,
1764808592.541326,,,,,,,-0.0130462646484375,0.020574867725372314,-0.0023752450942993164,0.09689872711896896,0.050735872238874435,0.2994246780872345
1764808592.547142,0.2563929281264543,-0.12022621583640575,0.0057195466905832285,-0.11429690569639206,0.07540049403905869,-0.2574627697467804,,,,,,
1764808592.551356,,,,,,,-0.010520696640014648,0.02331206202507019,0.003363370895385742,0.08323545008897781,0.042615894228219986,0.3022080063819885
1764808592.557194,0.24569471624046563,-0.08087795578837394,-0.03922843306064606,-0.10298006981611252,0.06370468437671661,-0.25353699922561646,,,,,,
1764808592.561386,,,,,,,-0.010033130645751953,0.02106305956840515,0.005881905555725098,0.06704449653625488,0.037916213274002075,0.3026711344718933
1764808592.567246,0.2101017170727253,-0.05049333891868591,-0.09650752312932163,-0.09006501734256744,0.06853476166725159,-0.24566063284873962,,,,,,
1764808592.571416,,,,,,,-0.01459348201751709,0.013433784246444702,0.006381869316101074,0.047353822737932205,0.03991305083036423,0.2941412925720215
1764808592.577299,0.16839374215602873,-0.043736265873909,-0.12565116349458694,-0.08281455934047699,0.08221781253814697,-0.24011807143688202,,,,,,
1764808592.581447,,,,,,,-0.01926177740097046,0.012313365936279297,0.007408972829580307,0.026044275611639023,0.045790914446115494,0.2844865620136261
1764808592.587351,0.13604834660738707,-0.08899462674856186,-0.08425298517942428,-0.08208034187555313,0.1039445623755455,-0.2380080372095108,,,,,,
1764808592.591477,,,,,,,-0.020578861236572266,0.024354994297027588,0.006012558937072754,0.028083395212888718,0.05179261416196823,0.2902773320674896
1764808592.597403,0.09767448454946279,-0.15422902320325374,-0.08436523164855315,-0.07822385430335999,0.12753590941429138,-0.24033665657043457,,,,,,
1764808592.601507,,,,,,,-0.02209031581878662,0.03351148962974548,0.0019417963922023773,0.07150091230869293,0.05540252849459648,0.3017401099205017
1764808592.607455,0.08033142782151699,-0.2313151854932308,-0.11549803653704002,-0.07942813634872437,0.16172078251838684,-0.24185866117477417,,,,,,
1764808592.611537,,,,,,,-0.028650879859924316,0.031850665807724,-0.003943447023630142,0.11052761226892471,0.06061273813247681,0.30570170283317566
1764808592.617508,0.07939327018857002,-0.29327918197512626,-0.13577800523340702,-0.08956743776798248,0.20294809341430664,-0.24456611275672913,,,,,,
1764808592.621567,,,,,,,-0.03354072570800781,0.029536277055740356,-0.006113529205322266,0.12708395719528198,0.07311441004276276,0.30564630031585693
1764808592.62756,0.1351136961057782,-0.3131529262244701,-0.12529635870754718,-0.1059378907084465,0.2311488389968872,-0.2501121461391449,,,,,,
1764808592.631597,,,,,,,-0.035775184631347656,0.03130006790161133,-0.0050928592681884766,0.15367391705513,0.08607255667448044,0.3200165033340454
1764808592.637612,0.19413345582932232,-0.33389585452377796,-0.13008300846219062,-0.11879030615091324,0.24158203601837158,-0.2618878483772278,,,,,,
1764808592.641627,,,,,,,-0.03131014108657837,0.030475705862045288,-0.004400016739964485,0.18454422056674957,0.08498891443014145,0.3442757725715637
1764808592.647665,0.24543635756522417,-0.30650983494818207,-0.19823826079964638,-0.12283404916524887,0.24309684336185455,-0.2679566442966461,,,,,,
1764808592.651657,,,,,,,-0.024832546710968018,0.030029118061065674,0.0003062523901462555,0.20634061098098755,0.07651526480913162,0.349001407623291
1764808592.657717,0.3149798493906855,-0.21955694316029548,-0.2737526437282562,-0.1203651949763298,0.24507515132427216,-0.26632311940193176,,,,,,
1764808592.661687,,,,,,,-0.023277759552001953,0.029038667678833008,0.00818503275513649,0.21395166218280792,0.07018440216779709,0.35600870847702026
1764808592.667769,0.3651388417884707,-0.1348462773412466,-0.3175456082254648,-0.1090179979801178,0.23958797752857208,-0.26521602272987366,,,,,,
1764808592.671717,,,,,,,-0.02628302574157715,0.024526894092559814,0.014921307563781738,0.21236653625965118,0.0709625780582428,0.3698272705078125
1764808592.677821,0.36553923928290605,-0.11079320158064365,-0.3091840225934982,-0.09626315534114838,0.23066966235637665,-0.26714879274368286,,,,,,
1764808592.681747,,,,,,,-0.029848158359527588,0.022266477346420288,0.018747804686427116,0.19779931008815765,0.07585826516151428,0.37286967039108276
1764808592.687874,0.3350722048267722,-0.152309453317523,-0.2897925089031458,-0.08914826065301895,0.2180880904197693,-0.2710910439491272,,,,,,
1764808592.691777,,,,,,,-0.03166055679321289,0.026228100061416626,0.017995115369558334,0.19076015055179596,0.08207941055297852,0.37312400341033936
1764808592.697926,0.30290304262787104,-0.21450667403340337,-0.24452011950314043,-0.08764400333166122,0.21333986520767212,-0.27469927072525024,,,,,,
1764808592.701807,,,,,,,-0.033711910247802734,0.02975553274154663,0.015468712896108627,0.19433623552322388,0.09100525826215744,0.3706837594509125
1764808592.707978,0.26424510293155906,-0.24566578240692613,-0.23742168567478655,-0.09022939950227737,0.22244493663311005,-0.2810533046722412,,,,,,
1764808592.711837,,,,,,,-0.03412270545959473,0.03885886073112488,0.014744400978088379,0.1878083348274231,0.1033114641904831,0.36929136514663696
1764808592.718031,0.23950492168962953,-0.2595668819874525,-0.24122224700152872,-0.093447245657444,0.24758455157279968,-0.28830528259277344,,,,,,
1764808592.721868,,,,,,,-0.03441363573074341,0.05080994963645935,0.014824628829956055,0.2034727782011032,0.11376277357339859,0.38078877329826355
1764808592.728083,0.2193883085951209,-0.24048165776729583,-0.31114684709906576,-0.0975615605711937,0.2980645000934601,-0.2905426025390625,,,,,,
1764808592.731898,,,,,,,-0.032607316970825195,0.05461090803146362,0.017121795564889908,0.23537398874759674,0.13538604974746704,0.4143235683441162
1764808592.738135,0.21730478031933306,-0.15665069739222526,-0.402110143572092,-0.10771699249744415,0.37602028250694275,-0.2996583580970764,,,,,,
1764808592.741928,,,,,,,-0.023510277271270752,0.052286386489868164,0.012675527483224869,0.25078701972961426,0.1324259489774704,0.44551822543144226
1764808592.748187,0.21783991010934114,-0.032583588218688966,-0.5029354933679103,-0.1278185397386551,0.4548530578613281,-0.3189127445220947,,,,,,
1764808592.751958,,,,,,,-0.01149594783782959,0.04844486713409424,0.006484389305114746,0.2686898708343506,0.12013304978609085,0.47048723697662354
1764808592.75824,0.27328122682422396,-0.058736266607046124,-0.5222434204280376,-0.15290232002735138,0.5183854103088379,-0.3515569567680359,,,,,,
1764808592.761988,,,,,,,-0.00824129581451416,0.05114594101905823,0.007280584424734116,0.2963939309120178,0.11773860454559326,0.5054183602333069
1764808592.768292,0.3999333840548992,-0.12551087824106216,-0.5987573357880115,-0.16587527096271515,0.5615144371986389,-0.372342050075531,,,,,,
1764808592.772018,,,,,,,-0.013034999370574951,0.06390374898910522,0.015020487830042839,0.31017792224884033,0.09918329864740372,0.53194260597229
1764808592.778344,0.5859145130887627,-0.13920271898508071,-0.6567629500329494,-0.16219237446784973,0.5852482318878174,-0.37649524211883545,,,,,,
1764808592.782048,,,,,,,-0.027041733264923096,0.07054758071899414,0.029690856114029884,0.2968766689300537,0.09740377217531204,0.5508663654327393
1764808592.788397,0.677496818242967,-0.11224573847651481,-0.67867550663352,-0.14151713252067566,0.5977630019187927,-0.3694961667060852,,,,,,
1764808592.792078,,,,,,,-0.04293316602706909,0.06299027800559998,0.0396343469619751,0.26528939604759216,0.118328757584095,0.5646228790283203
1764808592.798449,0.7120251107886433,-0.09510697214901447,-0.6765057613790035,-0.11053019016981125,0.6013494729995728,-0.36348965764045715,,,,,,
1764808592.802108,,,,,,,-0.055410146713256836,0.06234285235404968,0.039103034883737564,0.24854768812656403,0.13718314468860626,0.568395733833313
1764808592.808501,0.7233662967532872,-0.0976151555776596,-0.6501870787739753,-0.08687669783830643,0.5909662842750549,-0.35708382725715637,,,,,,
1764808592.812138,,,,,,,-0.06073808670043945,0.08076664805412292,0.02882695198059082,0.2532624304294586,0.16119687259197235,0.5470770001411438
1764808592.818553,0.7561801865965128,-0.148993460637331,-0.559126715134643,-0.07494430243968964,0.5667644739151001,-0.34555596113204956,,,,,,
1764808592.822168,,,,,,,-0.0604897141456604,0.11438429355621338,0.01738250069320202,0.2380419224500656,0.17152833938598633,0.48723331093788147
1764808592.828606,0.824996533191204,-0.11252806254923343,-0.4955611652076244,-0.06637824326753616,0.5344486236572266,-0.31958213448524475,,,,,,
1764808592.832198,,,,,,,-0.050762057304382324,0.1508437693119049,0.012440914288163185,0.17077910900115967,0.16733838617801666,0.40403836965560913
1764808592.838658,0.9100289783105253,0.02258826390504837,-0.5061094472289085,-0.03266714885830879,0.49431076645851135,-0.27262529730796814,,,,,,
1764808592.842228,,,,,,,-0.03788495063781738,0.1785517930984497,0.009394653141498566,0.08292968571186066,0.14725390076637268,0.3354864716529846
1764808592.84871,1.0312807378023863,0.11367898615002632,-0.5714531492769718,0.021455690264701843,0.45122814178466797,-0.2012031078338623,,,,,,
1764808592.852258,,,,,,,-0.032675087451934814,0.186924546957016,0.010486360639333725,-0.0018818250391632318,0.11706908792257309,0.25575828552246094
1764808592.858763,1.1671139803543686,0.0807400086224079,-0.6259095466077327,0.07050738483667374,0.4089570939540863,-0.11310173571109772,,,,,,
1764808592.862289,,,,,,,-0.04302328824996948,0.19028353691101074,0.018937941640615463,-0.12178559601306915,0.11899774521589279,0.14123117923736572
1764808592.868815,1.2703294401571155,0.03210194218158722,-0.6318973888456821,0.09931698441505432,0.38350096344947815,-0.030745957046747208,,,,,,
1764808592.872319,,,,,,,-0.053124964237213135,0.2028261125087738,0.03286731243133545,-0.30272412300109863,0.12925279140472412,0.013909379951655865
1764808592.878867,1.2755328540191053,0.09208090232610702,-0.683045392280817,0.12875184416770935,0.37844014167785645,0.04206619784235954,,,,,,
1764808592.882349,,,,,,,-0.046108901500701904,0.2099420428276062,0.03638780117034912,-0.4215053617954254,0.13113510608673096,-0.08571068942546844
1764808592.888919,1.2388111430823803,0.23742168567478655,-0.853805279046297,0.17660507559776306,0.3700123429298401,0.10743939876556396,,,,,,
1764808592.892379,,,,,,,-0.03140580654144287,0.22201675176620483,0.03908538818359375,-0.47450965642929077,0.12846475839614868,-0.16664935648441315
1764808592.898972,1.2945476433515548,0.3586222995012998,-0.9902233357489109,0.23600821197032928,0.3602933883666992,0.17911678552627563,,,,,,
1764808592.902409,,,,,,,-0.02206742763519287,0.2500283718109131,0.04053163528442383,-0.4483800530433655,0.10931236296892166,-0.26236096024513245
1764808592.909024,1.3874690881550311,0.38369244334995745,-1.0021405680358408,0.28646591305732727,0.3469320237636566,0.2647911608219147,,,,,,
1764808592.912439,,,,,,,-0.02470642328262329,0.27535074949264526,0.04359043017029762,-0.42073753476142883,0.09633371233940125,-0.37877458333969116
1764808592.919076,1.4121771206930278,0.39382688387334347,-0.9800397953867912,0.3338549733161926,0.34461116790771484,0.3505123555660248,,,,,,
1764808592.922469,,,,,,,-0.03475075960159302,0.2890951931476593,0.05596315860748291,-0.4290330111980438,0.09931299090385437,-0.4977758228778839
1764808592.929128,1.3779551176175475,0.4529401670992374,-1.0482803879201412,0.40202897787094116,0.362713485956192,0.42510321736335754,,,,,,
1764808592.932499,,,,,,,-0.044390320777893066,0.28650805354118347,0.06947469711303711,-0.47593650221824646,0.11283918470144272,-0.618252158164978
1764808592.939181,1.3398191559687256,0.5552589703232049,-1.1946820784986019,0.5058726072311401,0.4046745002269745,0.5035737752914429,,,,,,
1764808592.942529,,,,,,,-0.052761197090148926,0.28576982021331787,0.08673858642578125,-0.5105272531509399,0.15805168449878693,-0.7249394655227661
1764808592.949233,1.3839827073439954,0.6270698225587606,-1.240699148786068,0.6273086071014404,0.45333993434906006,0.602180004119873,,,,,,
1764808592.952559,,,,,,,-0.06166422367095947,0.30012616515159607,0.10042500495910645,-0.49344614148139954,0.2123764306306839,-0.8308484554290771
1764808592.959285,1.4683207404583691,0.5256920995771884,-1.1681868702828884,0.7320964932441711,0.5101659297943115,0.7115472555160522,,,,,,
1764808592.962589,,,,,,,-0.07357031106948853,0.3239520490169525,0.09746991842985153,-0.44714948534965515,0.28516754508018494,-0.9619945287704468
1764808592.969338,1.462364462402463,0.3317629341483116,-0.9804396083593367,0.7912470102310181,0.5615994930267334,0.814042329788208,,,,,,
1764808592.972619,,,,,,,-0.08035492897033691,0.3499882221221924,0.07838333398103714,-0.3892906904220581,0.39217761158943176,-1.0836647748947144
1764808592.97939,1.4057248758137226,0.26407939097583294,-0.7967945210576057,0.8198482990264893,0.5950319766998291,0.8921984434127808,,,,,,
1764808592.982649,,,,,,,-0.06340432167053223,0.37087616324424744,0.05247199535369873,-0.31400448083877563,0.4816361367702484,-1.18838369846344
1764808592.989442,1.4212696509480476,0.3893786722928285,-0.7676356465905905,0.8456707000732422,0.6166304349899292,0.9537279009819031,,,,,,
1764808592.99268,,,,,,,-0.028612077236175537,0.37584662437438965,0.04849887639284134,-0.255329966545105,0.523775577545166,-1.283473253250122
1764808592.999495,1.5801695885717868,0.7299918523728847,-0.9326379927426576,0.8998547196388245,0.6505849957466125,1.0136046409606934,,,,,,
1764808593.002709,,,,,,,0.013411223888397217,0.3686804175376892,0.07441949099302292,-0.2784043848514557,0.5310284495353699,-1.4013673067092896
1764808593.009547,1.8200491887927055,1.1968109072208404,-1.2889753961771726,1.0015925168991089,0.6885978579521179,1.0941239595413208,,,,,,
1764808593.01274,,,,,,,0.0408552885055542,0.35539910197257996,0.12315689772367477,-0.3380069136619568,0.5315704345703125,-1.5117205381393433
1764808593.019599,2.107001798094809,1.4313555761545895,-1.5656728611856698,1.1249513626098633,0.6873989105224609,1.1966099739074707,,,,,,
1764808593.02277,,,,,,,0.04363459348678589,0.3423140048980713,0.15614569187164307,-0.3622126579284668,0.5431320071220398,-1.6066217422485352
1764808593.029651,2.3483120156407353,1.2532500028014182,-1.5435200660884378,1.2253680229187012,0.6203231811523438,1.3153549432754517,,,,,,
1764808593.0328,,,,,,,0.015206098556518555,0.3645373582839966,0.16174530982971191,-0.3609876036643982,0.6144413352012634,-1.715423822402954
1764808593.039704,2.5396111248269677,0.8564028943240642,-1.2993956679046152,1.2858017683029175,0.5117954015731812,1.4317657947540283,,,,,,
1764808593.042829,,,,,,,-0.0212404727935791,0.4138616919517517,0.14383280277252197,-0.3060479164123535,0.7199235558509827,-1.848814606666565
1764808593.049756,2.6605107098802923,0.5593406866788864,-1.096215274527669,1.318787932395935,0.41026321053504944,1.5339808464050293,,,,,,
1764808593.052859,,,,,,,-0.030245721340179443,0.4529387950897217,0.10751821100711823,-0.2858542799949646,0.7890227437019348,-2.0221312046051025
1764808593.059808,2.761199573814869,0.619081161892414,-1.065783968972042,1.3587952852249146,0.3276365101337433,1.6479017734527588,,,,,,
1764808593.062889,,,,,,,-0.013747572898864746,0.4836207628250122,0.09675335884094238,-0.29431432485580444,0.8446553349494934,-2.1929595470428467
1764808593.06986,2.8814684597492217,0.8020768453747034,-1.193446910680458,1.4256563186645508,0.27763089537620544,1.796699047088623,,,,,,
1764808593.072919,,,,,,,0.015319526195526123,0.49693506956100464,0.10968376696109772,-0.28710147738456726,0.8908502459526062,-2.3048713207244873
1764808593.079912,2.9561630507275463,0.9972358448594808,-1.4529396314531564,1.4975018501281738,0.30874526500701904,1.9603233337402344,,,,,,
1764808593.082949,,,,,,,0.043880343437194824,0.4815382957458496,0.14241361618041992,-0.3643190264701843,0.9070835709571838,-2.4283015727996826
1764808593.089964,2.8587925175607203,1.3329729433357715,-1.8187404442816972,1.5721499919891357,0.3961688280105591,2.0930607318878174,,,,,,
1764808593.092979,,,,,,,0.06545037031173706,0.45718103647232056,0.20035670697689056,-0.48885247111320496,0.9605417251586914,-2.544997215270996
1764808593.100016,2.61287363717556,1.6088450634360312,-2.0939847878724334,1.6713498830795288,0.4790211319923401,2.1736764907836914,,,,,,
1764808593.103009,,,,,,,0.0824466347694397,0.4448206424713135,0.2419605255126953,-0.5582225322723389,1.0321160554885864,-2.6406257152557373
1764808593.11007,2.480750647318363,1.6665800440460443,-2.1757880418121816,1.7779618501663208,0.5004830360412598,2.2404167652130127,,,,,,
1764808593.11304,,,,,,,0.08760213851928711,0.4754300117492676,0.2576603889465332,-0.551727831363678,1.1285793781280518,-2.7513487339019775
1764808593.120122,2.6206770044028755,1.6721148818194864,-1.9082956275224685,1.8623077869415283,0.4633639454841614,2.3523805141448975,,,,,,
1764808593.123069,,,,,,,0.08265209197998047,0.5333227515220642,0.24117520451545715,-0.43053513765335083,1.2300828695297241,-2.87324595451355
1764808593.130173,2.8572230762869117,1.644707819455862,-1.6198491264007984,1.9189093112945557,0.4320526421070099,2.50289249420166,,,,,,
1764808593.1331,,,,,,,0.09066075086593628,0.5615167021751404,0.20395687222480774,-0.2755921483039856,1.3359733819961548,-3.012683629989624
1764808593.140226,2.998349456810951,1.6409382377892732,-1.515143135779351,1.948438048362732,0.43610483407974243,2.6520423889160156,,,,,,
1764808593.14313,,,,,,,0.12163114547729492,0.5733667016029358,0.180749773979187,-0.14255578815937042,1.437728762626648,-3.141162157058716
1764808593.150278,3.0960598894566296,1.7928905482321977,-1.3256636432357132,1.9723854064941406,0.4479956030845642,2.783935785293579,,,,,,
1764808593.15316,,,,,,,0.1690313220024109,0.5806007385253906,0.17438143491744995,-0.0369294211268425,1.5092905759811401,-3.247537851333618
1764808593.160331,3.1254484810262917,2.1170476835519074,-1.2222662509948015,2.0162405967712402,0.4668442904949188,2.9061405658721924,,,,,,
1764808593.16319,,,,,,,0.21818286180496216,0.5720531344413757,0.18838396668434143,0.0672539696097374,1.5772783756256104,-3.3536794185638428
1764808593.170382,3.0872809551954266,2.3340987813711167,-1.3187152854025364,2.0759499073028564,0.469556987285614,3.034219741821289,,,,,,
1764808593.17322,,,,,,,0.24908363819122314,0.5561084151268005,0.2204824537038803,0.1790514588356018,1.6509344577789307,-3.456007242202759
1764808593.180435,2.9477567491710186,2.4757933171719313,-1.319986035990715,2.1396327018737793,0.4848874807357788,3.158015489578247,,,,,,
1764808593.18325,,,,,,,0.26344627141952515,0.5394627451896667,0.23802229762077332,0.30830317735671997,1.719205379486084,-3.5510647296905518
1764808593.190487,2.7448937511801716,2.588100430446863,-1.3385492821633815,2.1955249309539795,0.5366116762161255,3.2639682292938232,,,,,,
1764808593.19328,,,,,,,0.2761627435684204,0.529833197593689,0.2440679371356964,0.45828932523727417,1.8128570318222046,-3.6296451091766357
1764808593.200539,2.5400322728484865,2.703148951384425,-1.3307178578853607,2.2364344596862793,0.6021579504013062,3.3696930408477783,,,,,,
1764808593.20331,,,,,,,0.3027351200580597,0.5224215984344482,0.23495498299598694,0.5875897407531738,1.869591236114502,-3.692758560180664
1764808593.210593,2.3943121347934007,2.8246441642433404,-1.2453729858160019,2.2484042644500732,0.6781070828437805,3.4595699310302734,,,,,,
1764808593.21334,,,,,,,0.34692877531051636,0.4982215166091919,0.23033413290977478,0.6507904529571533,1.9045419692993164,-3.7698960304260254
1764808593.220644,2.2437790434986353,2.9666140098541973,-1.2265747618436813,2.253750801086426,0.7488054633140564,3.536057949066162,,,,,,
1764808593.22337,,,,,,,0.39748039841651917,0.4689939618110657,0.24456512928009033,0.6713263392448425,1.9405585527420044,-3.829174280166626
1764808593.230696,2.1492185993164776,3.2109090884298084,-1.25397422542274,2.265064239501953,0.799166738986969,3.605891704559326,,,,,,
1764808593.2334,,,,,,,0.44578683376312256,0.4371459484100342,0.25172552466392517,0.6549258828163147,1.9352601766586304,-3.8647937774658203
1764808593.240748,2.1369582526803015,3.4492923126131294,-1.2655045042186974,2.271523952484131,0.8245663642883301,3.6545886993408203,,,,,,
1764808593.24343,,,,,,,0.4748011827468872,0.39879095554351807,0.25948333740234375,0.5860549211502075,1.933027744293213,-3.9156346321105957
1764808593.250801,2.1206249575167893,3.5679590240478514,-1.3078995846167205,2.2909770011901855,0.8095044493675232,3.6846694946289062,,,,,,
1764808593.25346,,,,,,,0.4781818389892578,0.3615105152130127,0.2851193845272064,0.47857391834259033,1.9741109609603882,-3.9579901695251465
1764808593.260854,2.1112749453693627,3.5940199324995277,-1.2729051358640193,2.324276924133301,0.7524489164352417,3.7077102661132812,,,,,,
1764808593.263491,,,,,,,0.47334158420562744,0.332348108291626,0.3094131052494049,0.3650449514389038,2.0344114303588867,-3.9890527725219727
1764808593.270905,2.162774246460199,3.709030167253315,-1.2115607325851916,2.3710544109344482,0.6632789373397827,3.7463672161102295,,,,,,
1764808593.273521,,,,,,,0.47775185108184814,0.3280552625656128,0.33087027072906494,0.3072754442691803,2.1052911281585693,-4.008306503295898
1764808593.280958,2.242019048088789,3.9447736905828115,-1.242886429697275,2.4231433868408203,0.5670754313468933,3.8186235427856445,,,,,,
1764808593.283551,,,,,,,0.4918839633464813,0.33470290899276733,0.333093523979187,0.3119862973690033,2.1707537174224854,-4.015100955963135
1764808593.29101,2.191283132585883,4.228122722434997,-1.2265355988770723,2.4576008319854736,0.49682891368865967,3.8904879093170166,,,,,,
1764808593.293581,,,,,,,0.5159072875976562,0.33295661211013794,0.3133167624473572,0.31775006651878357,2.206577777862549,-4.031769752502441
1764808593.301062,1.9241461076050996,4.379062056443095,-1.219553484904766,2.477250576019287,0.48843249678611755,3.93410325050354,,,,,,
1764808593.303611,,,,,,,0.5423122048377991,0.3230542540550232,0.29264476895332336,0.2942814826965332,2.2459115982055664,-4.060027122497559
1764808593.311115,1.5818459973514079,4.3958372501552105,-1.229512568861246,2.497833490371704,0.5314138531684875,3.9468064308166504,,,,,,
1764808593.313641,,,,,,,0.5664694905281067,0.30471187829971313,0.31646403670310974,0.1487955003976822,2.299114465713501,-4.123172760009766
1764808593.321167,1.2473697125911711,4.532396176633238,-1.26434364374578,2.5518691539764404,0.5653030872344971,3.9684925079345703,,,,,,
1764808593.323671,,,,,,,0.5938503742218018,0.29337531328201294,0.37360239028930664,0.06378820538520813,2.4130730628967285,-4.131770133972168
1764808593.331219,1.0839192720562218,4.91706827867031,-1.3137225916817783,2.625657796859741,0.5623326897621155,4.0358171463012695,,,,,,
1764808593.333701,,,,,,,0.6179380416870117,0.3064391016960144,0.40671810507774353,0.042141374200582504,2.4904403686523438,-4.149398326873779
1764808593.341271,0.9770955586284399,5.377159486567974,-1.3915844145193694,2.691728353500366,0.5739789605140686,4.125951290130615,,,,,,
1764808593.343731,,,,,,,0.6377458572387695,0.32594192028045654,0.3892795443534851,0.11942311376333237,2.578429698944092,-4.164154052734375
1764808593.351325,0.7803840690046548,5.617680891823769,-1.4471183779537677,2.726696252822876,0.6186977624893188,4.196460723876953,,,,,,
1764808593.353761,,,,,,,0.6477047204971313,0.3065646290779114,0.3616527318954468,0.21066458523273468,2.6627707481384277,-4.161548614501953
1764808593.361377,0.5033528419971466,5.518356594240665,-1.2500760489404201,2.746826410293579,0.6872888207435608,4.222460746765137,,,,,,
1764808593.363791,,,,,,,0.6637001037597656,0.2651200294494629,0.36225196719169617,0.3032025098800659,2.7450435161590576,-4.171872615814209
1764808593.371428,0.20075988823175428,5.279807950362563,-1.0874825174957514,2.768164873123169,0.7662097215652466,4.216081619262695,,,,,,
1764808593.373821,,,,,,,0.6811480522155762,0.23881745338439941,0.3720158636569977,0.47966867685317993,2.846888780593872,-4.129120349884033
1764808593.38148,-0.027196049961447713,5.142842196649313,-0.9716101129546761,2.772813320159912,0.8374825716018677,4.213242530822754,,,,,,
1764808593.383851,,,,,,,0.6974135637283325,0.23572289943695068,0.370915025472641,0.678347110748291,2.9207284450531006,-4.111758232116699
1764808593.391533,-0.228963069409132,5.21149896876812,-0.9168427499786018,2.764360189437866,0.9239084124565125,4.224508762359619,,,,,,
1764808593.393881,,,,,,,0.7180747389793396,0.24226981401443481,0.3653791546821594,0.8553590178489685,2.9748597145080566,-4.097756862640381
1764808593.401585,-0.4500321706980467,5.42668368819356,-1.028909040234983,2.751147985458374,1.0238347053527832,4.241589069366455,,,,,,
1764808593.403912,,,,,,,0.7471184134483337,0.20132851600646973,0.34897589683532715,1.0301545858383179,2.9821078777313232,-4.0603179931640625
1764808593.411638,-0.6553039833962917,5.526649790811538,-1.1498138859853149,2.7239856719970703,1.101431965827942,4.2453813552856445,,,,,,
1764808593.413942,,,,,,,0.7618125677108765,0.1359618902206421,0.3418703079223633,1.1617891788482666,2.996645927429199,-4.020721435546875
1764808593.42169,-0.8403945933312177,5.3398032771199935,-1.1327389786742628,2.698507070541382,1.1376255750656128,4.216268062591553,,,,,,
1764808593.423972,,,,,,,0.7539304494857788,0.09140467643737793,0.36160099506378174,1.1901860237121582,3.0116703510284424,-4.016177654266357
1764808593.431742,-0.9295312588989734,5.145311801633238,-1.1800076564580202,2.693547248840332,1.1473885774612427,4.172858238220215,,,,,,
1764808593.434002,,,,,,,0.7492028474807739,0.07416832447052002,0.40308988094329834,1.1471399068832397,3.05131196975708,-3.9801578521728516
1764808593.441794,-0.943029038375616,5.169391180878877,-1.2755004130542278,2.6916844844818115,1.1194651126861572,4.139309406280518,,,,,,
1764808593.444032,,,,,,,0.7620949745178223,0.02669733762741089,0.37797045707702637,1.0801459550857544,2.9908432960510254,-3.905999183654785
1764808593.451848,-0.8304922079980372,5.23393525698185,-1.316294049604982,2.6753313541412354,1.0481882095336914,4.106538772583008,,,,,,
1764808593.454062,,,,,,,0.7644433379173279,-0.04437398910522461,0.35123634338378906,0.919748842716217,2.941119432449341,-3.862367630004883
1764808593.4619,-0.750922412198782,5.029037538293004,-1.3178121990829705,2.640498161315918,0.9262492656707764,4.05236291885376,,,,,,
1764808593.464092,,,,,,,0.7306922674179077,-0.08458274602890015,0.3496110439300537,0.7070443034172058,2.9146225452423096,-3.788080930709839
1764808593.471951,-0.7273685181319713,4.655006657257676,-1.3615174852967262,2.6101129055023193,0.7625184655189514,3.9717485904693604,,,,,,
1764808593.474122,,,,,,,0.6974779367446899,-0.1155935525894165,0.357810378074646,0.44415828585624695,2.891000986099243,-3.719726085662842
1764808593.482003,-0.6251490836292505,4.4034833809942,-1.4793436542540788,2.5859599113464355,0.5696828961372375,3.8831770420074463,,,,,,
1764808593.484152,,,,,,,0.6803576350212097,-0.14185065031051636,0.3738546371459961,0.24677518010139465,2.924311399459839,-3.6078221797943115
1764808593.492056,-0.5257873766452074,4.442997645258903,-1.416253868612647,2.561152458190918,0.3720760941505432,3.798628330230713,,,,,,
1764808593.494182,,,,,,,0.6755860447883606,-0.16152197122573853,0.37148934602737427,0.08289909362792969,2.9027304649353027,-3.5443828105926514
1764808593.502108,-0.5700625717014074,4.641507708737254,-1.4437579616099596,2.5485289096832275,0.19535088539123535,3.705909490585327,,,,,,
1764808593.504212,,,,,,,0.6735902428627014,-0.12466168403625488,0.39983999729156494,-0.08288880437612534,2.914252519607544,-3.506065607070923
1764808593.512161,-0.737168027612567,4.823783845773339,-1.645537840539217,2.548772096633911,0.0450894720852375,3.6163182258605957,,,,,,
1764808593.514242,,,,,,,0.6655214428901672,-0.09578663110733032,0.38707971572875977,-0.11485018581151962,2.9030091762542725,-3.381852388381958
1764808593.522213,-0.9860393280625342,4.888189974710345,-1.8114479491859674,2.553185224533081,-0.07032633572816849,3.530893325805664,,,,,,
1764808593.524272,,,,,,,0.6517053246498108,-0.13037830591201782,0.3784467577934265,-0.20041462779045105,2.8598368167877197,-3.3347089290618896
1764808593.532265,-1.22594289368093,4.662665063056349,-1.9113947625815868,2.5553038120269775,-0.10191861540079117,3.4392600059509277,,,,,,
1764808593.534302,,,,,,,0.6150325536727905,-0.1360480785369873,0.3740713596343994,-0.321720689535141,2.9017765522003174,-3.2935750484466553
1764808593.542317,-1.5115157390624283,4.417668558213115,-2.0972879210710524,2.5537402629852295,-0.09250383079051971,3.352524518966675,,,,,,
1764808593.544333,,,,,,,0.6034360527992249,-0.14039450883865356,0.3884340226650238,-0.49109160900115967,2.9272663593292236,-3.2839250564575195
1764808593.552369,-1.7006670225650071,4.456041835749149,-2.0450129594326016,2.537292718887329,-0.06894657015800476,3.2971370220184326,,,,,,
1764808593.554363,,,,,,,0.6366856098175049,-0.04150354862213135,0.44830572605133057,-0.5131206512451172,2.9917333126068115,-3.2127561569213867
1764808593.562423,-1.5982091031312942,4.877955580943823,-2.0024924990892408,2.5457448959350586,0.008551276288926601,3.2823119163513184,,,,,,
1764808593.564393,,,,,,,0.6706189513206482,0.03549128770828247,0.3815339207649231,-0.3863954544067383,2.8911101818084717,-3.1186070442199707
1764808593.572474,-1.451692846262455,5.322337763056159,-2.1427847668766975,2.5346784591674805,0.09129755198955536,3.2758948802948,,,,,,
1764808593.574423,,,,,,,0.6850954294204712,-0.027577340602874756,0.32077664136886597,-0.3422246277332306,2.8634045124053955,-3.097198486328125
1764808593.582526,-1.490080152323842,5.2079795624703165,-1.750996110832691,2.4899003505706787,0.12476314604282379,3.2392325401306152,,,,,,
1764808593.584453,,,,,,,0.6590251922607422,-0.07274913787841797,0.2986612915992737,-0.2700287401676178,2.9290127754211426,-3.01869535446167
1764808593.592579,-1.6142641658753156,4.713445402222871,-1.329534785580635,2.432542085647583,0.09510724991559982,3.1727488040924072,,,,,,
1764808593.594483,,,,,,,0.6192029118537903,-0.07367637753486633,0.2506740689277649,-0.2310328632593155,2.9029181003570557,-3.013610363006592
1764808593.602631,-1.7243150246560572,4.118722436517476,-1.1520156338132916,2.373030424118042,-0.008692263625562191,3.073687791824341,,,,,,
1764808593.604513,,,,,,,0.5914291143417358,-0.05098313093185425,0.2536059021949768,-0.2898370623588562,2.910480260848999,-3.01129412651062
1764808593.612684,-1.6649118185728788,3.7240111710250376,-0.8929296672105789,2.319378137588501,-0.15485532581806183,2.95762300491333,,,,,,
1764808593.614543,,,,,,,0.6006671190261841,-0.07994183897972107,0.23553967475891113,-0.29582589864730835,2.864281177520752,-2.8887603282928467
1764808593.622736,-1.4757687183767556,3.544298162475228,-0.7057075982049107,2.2536966800689697,-0.2756832242012024,2.8377881050109863,,,,,,
1764808593.624573,,,,,,,0.6141197085380554,-0.14547449350357056,0.1587314009666443,-0.37061944603919983,2.7251765727996826,-2.857240915298462
1764808593.632788,-1.2455506804704666,3.675744275984168,-0.5995100538514554,2.172053813934326,-0.35003235936164856,2.7411391735076904,,,,,,
1764808593.634604,,,,,,,0.5885436534881592,-0.20036724209785461,0.0714712142944336,-0.4732140600681305,2.6855432987213135,-2.7263739109039307
1764808593.64284,-1.3102189674749969,3.72124696700871,-0.2690601019978523,2.1051573753356934,-0.4317897856235504,2.6612133979797363,,,,,,
1764808593.644633,,,,,,,0.5461938977241516,-0.27026697993278503,0.02194434404373169,-0.6280015110969543,2.5577423572540283,-2.5637407302856445
1764808593.652892,-1.7515400084510444,3.3238281961232423,0.2683107449352741,2.0417518615722656,-0.47710299491882324,2.54429292678833,,,,,,
1764808593.654663,,,,,,,0.5219051241874695,-0.30909696221351624,-0.02276119589805603,-0.848871648311615,2.4251556396484375,-2.4034359455108643
1764808593.662946,-2.4103163441330193,2.8359225141048428,0.5490288437619805,1.9358245134353638,-0.4033299684524536,2.3871805667877197,,,,,,
1764808593.664693,,,,,,,0.5288385152816772,-0.3068396747112274,-0.09696689248085022,-1.0048500299453735,2.2398526668548584,-2.2285168170928955
1764808593.672997,-3.153781133802235,2.2138953618884085,0.9314258404739201,1.7292596101760864,-0.2067023068666458,2.2059147357940674,,,,,,
1764808593.674723,,,,,,,0.5731164216995239,-0.2416418194770813,-0.15944674611091614,-0.8857917785644531,2.0398826599121094,-1.9856693744659424
1764808593.683049,-3.5373972970455885,1.8324772932112217,1.4883844543218612,1.5469532012939453,-0.006619544699788094,2.007408380508423,,,,,,
1764808593.684754,,,,,,,0.5852509140968323,-0.19342666864395142,-0.30746179819107056,-0.5606443285942078,1.7925949096679688,-1.7955249547958374
1764808593.693101,-3.5062831968575714,1.9745716419845818,2.0067177155688403,1.3453569412231445,0.10353473573923111,1.7822856903076172,,,,,,
1764808593.694784,,,,,,,0.5378097295761108,-0.2065606713294983,-0.43005579710006714,-0.34898513555526733,1.555323839187622,-1.6785402297973633
1764808593.703154,-3.3969095066860318,1.8994243388026952,2.7240336262419818,1.142455816268921,0.12735699117183685,1.5762990713119507,,,,,,
1764808593.704814,,,,,,,0.5085387825965881,-0.22647756338119507,-0.46443402767181396,-0.1901416927576065,1.3370897769927979,-1.4961084127426147
1764808593.713207,-2.8285160372406244,1.942093852227926,2.959138267146051,0.9610198140144348,0.08615904301404953,1.3940422534942627,,,,,,
1764808593.714844,,,,,,,0.5114401578903198,-0.2808395326137543,-0.46968162059783936,-0.05348503217101097,1.068787693977356,-1.3302356004714966
1764808593.723258,-2.2006574023917316,1.9660843841463327,2.8126088585346936,0.7741029262542725,0.05239895358681679,1.1793854236602783,,,,,,
1764808593.724874,,,,,,,0.48719632625579834,-0.29817959666252136,-0.438564658164978,-0.035406164824962616,0.8722651600837708,-1.1481060981750488
1764808593.733311,-1.990298787948489,1.7097072381108998,2.5269576872199773,0.6089362502098083,0.037335336208343506,0.9586538672447205,,,,,,
1764808593.734904,,,,,,,0.4536311626434326,-0.3067648708820343,-0.39847955107688904,-0.0825301930308342,0.6931406855583191,-0.8771280646324158
1764808593.743363,-1.6968404500141738,1.8948241515308617,2.3433152302667497,0.4577192962169647,0.0073217772878706455,0.7501968145370483,,,,,,
1764808593.744934,,,,,,,0.4460412263870239,-0.35162651538848877,-0.3942944407463074,-0.16494490206241608,0.5196719169616699,-0.6607201099395752
1764808593.753415,-1.5561191431596875,2.1932810284048316,2.4741589939683672,0.31947508454322815,-0.033539533615112305,0.5421918630599976,,,,,,
1764808593.754964,,,,,,,0.44993430376052856,-0.3549957871437073,-0.39009416103363037,-0.20167389512062073,0.33870241045951843,-0.4298253357410431
1764808593.763468,-1.7403221566051243,2.3523615832924842,2.558782858286798,0.1868363469839096,-0.04607556387782097,0.32417353987693787,,,,,,
1764808593.764994,,,,,,,0.47292059659957886,-0.3307986855506897,-0.39720815420150757,-0.15639562904834747,0.14335662126541138,-0.19102685153484344
1764808593.77352,-2.1193395938813686,2.4305758728295563,2.530551620058715,0.04875043407082558,-0.017422329634428024,0.0939401239156723,,,,,,
1764808593.775024,,,,,,,0.48441457748413086,-0.30044877529144287,-0.40257370471954346,-0.03806249052286148,-0.04900723323225975,0.034148138016462326
1764808593.783572,-2.4287886971518398,2.5023370407044885,2.459624564920366,-0.10213504731655121,0.029773879796266556,-0.14116892218589783,,,,,,
1764808593.785054,,,,,,,0.4893110990524292,-0.26769718527793884,-0.398266077041626,0.13630904257297516,-0.23725703358650208,0.25434601306915283
1764808593.793624,-2.4880475263282653,2.693797770193219,2.3958999885067342,-0.25901708006858826,0.08677218854427338,-0.37720540165901184,,,,,,
1764808593.795084,,,,,,,0.5095210671424866,-0.2440267950296402,-0.3862832188606262,0.3095756471157074,-0.43123796582221985,0.469720721244812
1764808593.803676,-2.4633178664803506,2.980001899215579,2.3341832447841764,-0.4160330593585968,0.14626933634281158,-0.6132184863090515,,,,,,
1764808593.805114,,,,,,,0.5512856245040894,-0.23934881389141083,-0.3621937930583954,0.4569334089756012,-0.6062797904014587,0.6963008642196655
1764808593.81373,-2.425573242236674,3.337135421463847,2.2704782498538494,-0.5621532201766968,0.19627262651920319,-0.843181312084198,,,,,,
1764808593.815145,,,,,,,0.5964402556419373,-0.24249811470508575,-0.33034104108810425,0.5996662974357605,-0.7568325400352478,0.9341134428977966
1764808593.823781,-2.3875921788886187,3.703855687224865,2.1676783851146695,-0.6841347813606262,0.2448662519454956,-1.066234827041626,,,,,,
1764808593.825175,,,,,,,0.6196616291999817,-0.2588801980018616,-0.28851062059402466,0.7314086556434631,-0.8986421823501587,1.1775801181793213
1764808593.833833,-2.39805219810456,3.9562411332756278,2.017246123845875,-0.7926867008209229,0.2831769585609436,-1.2918378114700317,,,,,,
1764808593.835205,,,,,,,0.625899612903595,-0.26798057556152344,-0.25335776805877686,0.8390080332756042,-1.0311685800552368,1.4106965065002441
1764808593.843886,-2.4664935739070177,4.165296556165814,1.789713671761751,-0.9000387191772461,0.29996737837791443,-1.5194851160049438,,,,,,
1764808593.845235,,,,,,,0.6366465091705322,-0.27608752250671387,-0.22792643308639526,0.9515910744667053,-1.1497324705123901,1.6551837921142578
1764808593.853938,-2.5796140493914486,4.290304161059856,1.5946242303818463,-1.0140162706375122,0.3071999251842499,-1.7513203620910645,,,,,,
1764808593.855265,,,,,,,0.6539387106895447,-0.28237664699554443,-0.21027439832687378,1.093793511390686,-1.2688575983047485,1.8974858522415161
1764808593.863991,-2.6703338924974203,4.316771312224865,1.4268316689893603,-1.13673734664917,0.33319664001464844,-1.9832795858383179,,,,,,
1764808593.865295,,,,,,,0.6660411953926086,-0.28257477283477783,-0.19069302082061768,1.2442948818206787,-1.399375319480896,2.139908790588379
1764808593.874043,-2.771986340767145,4.270791066816449,1.1853621692284941,-1.260393500328064,0.3804164230823517,-2.209338426589966,,,,,,
1764808593.875325,,,,,,,0.6691091060638428,-0.29433146119117737,-0.16613435745239258,1.394532561302185,-1.5115684270858765,2.393331289291382
1764808593.884095,-2.8885519882693886,4.135581216859817,0.9683749304257333,-1.3827598094940186,0.44955819845199585,-2.4363768100738525,,,,,,
1764808593.885355,,,,,,,0.6604971289634705,-0.3225111663341522,-0.1376839578151703,1.4968578815460205,-1.598933458328247,2.6454384326934814
1764808593.894147,-3.0496959054276345,3.9840526847869158,0.8406094051256775,-1.5159263610839844,0.5446774959564209,-2.6723082065582275,,,,,,
1764808593.895386,,,,,,,0.6600853800773621,-0.3307543992996216,-0.10702592134475708,1.580126166343689,-1.670271873474121,2.8894946575164795
1764808593.904199,-3.2535800631597636,3.9679304020255803,0.766271080239117,-1.6707754135131836,0.6439318656921387,-2.916412115097046,,,,,,
1764808593.905416,,,,,,,0.6805487275123596,-0.32672035694122314,-0.0715174674987793,1.6672714948654175,-1.7235441207885742,3.12465238571167
1764808593.914253,-3.4594115555673834,4.076848457384109,0.6594399141572416,-1.8090898990631104,0.7354031801223755,-3.161879777908325,,,,,,
1764808593.915445,,,,,,,0.7141890525817871,-0.30096155405044556,-0.02169787883758545,1.74428129196167,-1.8054530620574951,3.3518054485321045
1764808593.924304,-3.5802976966172455,4.303394528779387,0.32080753263086076,-1.8860232830047607,0.8038644790649414,-3.4027795791625977,,,,,,
1764808593.925475,,,,,,,0.7340797185897827,-0.28292733430862427,0.02418026328086853,1.764444351196289,-1.9097211360931396,3.556736469268799
1764808593.934356,-3.55746159543097,4.5371302194178105,-0.09601619594842195,-1.9238157272338867,0.836405873298645,-3.629934787750244,,,,,,
1764808593.935505,,,,,,,0.71788489818573,-0.29510927200317383,0.061673641204833984,1.6543757915496826,-1.9541629552841187,3.743501663208008
1764808593.944408,-3.40490372031033,4.768641804265975,-0.2534634505458176,-1.944934606552124,0.8346911668777466,-3.8336784839630127,,,,,,
1764808593.945535,,,,,,,0.695497989654541,-0.3214629590511322,0.11346125602722168,1.5059237480163574,-1.9256521463394165,3.936911106109619
1764808593.954461,-3.1734874125301835,4.943008191090822,-0.3186182058930397,-1.969239592552185,0.821212112903595,-4.010307788848877,,,,,,
1764808593.955566,,,,,,,0.6877204179763794,-0.33198603987693787,0.16529157757759094,1.3710383176803589,-1.9115337133407593,4.108895301818848
1764808593.964514,-2.901726819401979,4.990558462294936,-0.4398796099960804,-1.983730673789978,0.8065080046653748,-4.173726558685303,,,,,,
1764808593.965596,,,,,,,0.696092426776886,-0.29800957441329956,0.19132977724075317,1.2362573146820068,-1.8969100713729858,4.264543056488037
1764808593.974566,-2.7035785749733448,5.064111189761758,-0.5900212177552282,-1.9841769933700562,0.7810831069946289,-4.321501731872559,,,,,,
1764808593.975626,,,,,,,0.721104085445404,-0.2552717924118042,0.2224770188331604,1.1593024730682373,-1.8947592973709106,4.414823532104492
1764808593.984617,-2.474185881975293,5.094645444235205,-0.6732089117906987,-1.9663444757461548,0.763039767742157,-4.452666282653809,,,,,,
1764808593.985656,,,,,,,0.7239717245101929,-0.21129167079925537,0.22256916761398315,1.214387059211731,-1.8731330633163452,4.604570388793945
1764808593.99467,-2.154195218685269,5.041611188662052,-0.7574971144139766,-1.9606602191925049,0.7605170011520386,-4.559633731842041,,,,,,
1764808593.995686,,,,,,,0.6969730854034424,-0.1512514352798462,0.1803799271583557,1.3293007612228394,-1.8959909677505493,4.763308525085449
1764808594.004722,-1.9052298102110623,4.907507254120707,-0.8511106331348419,-1.9832032918930054,0.7239605188369751,-4.645046234130859,,,,,,
1764808594.005716,,,,,,,0.6726524233818054,-0.09758049249649048,0.177649587392807,1.372083306312561,-1.9621641635894775,4.843351364135742
1764808594.014774,-1.7075947760015726,4.5004976480692624,-0.9387747419320046,-2.0467770099639893,0.6567780375480652,-4.723499298095703,,,,,,
1764808594.015746,,,,,,,0.6373808979988098,-0.08212333917617798,0.20964652299880981,1.2343422174453735,-1.9331079721450806,4.9492692947387695
1764808594.024827,-1.5504273612588644,3.9341280856668948,-1.111169171096757,-2.1289381980895996,0.6147428154945374,-4.789126396179199,,,,,,
1764808594.025776,,,,,,,0.6139155626296997,-0.09097516536712646,0.2594173550605774,0.9032886624336243,-1.8698062896728516,5.030605316162109
1764808594.034879,-1.39612468829751,3.62792103305757,-1.4530689569212496,-2.197723150253296,0.6495071649551392,-4.851733207702637,,,,,,
1764808594.035806,,,,,,,0.6347134113311768,-0.10187298059463501,0.3403378427028656,0.46060559153556824,-1.826514482498169,5.077876091003418
1764808594.044931,-1.1796207029670476,3.576994855679571,-1.8223602422140537,-2.2122037410736084,0.6981415748596191,-4.9722981452941895,,,,,,
1764808594.045837,,,,,,,0.6682242751121521,-0.099567711353302,0.3910905718803406,0.07570052146911621,-1.756456732749939,5.169316291809082
1764808594.054984,-0.860565859222412,3.7669115705966947,-1.9147265373528002,-2.1799793243408203,0.6255776286125183,-5.126489639282227,,,,,,
1764808594.055867,,,,,,,0.6998244524002075,-0.07418566942214966,0.3913268446922302,-0.14019033312797546,-1.7154548168182373,5.254955768585205
1764808594.065037,-0.3500426872044802,4.368588300962746,-1.5843033273756504,-2.139845371246338,0.41743239760398865,-5.250010967254639,,,,,,
1764808594.065897,,,,,,,0.7277957797050476,-0.023848414421081543,0.3949041962623596,-0.2784571349620819,-1.7025033235549927,5.265842437744141
1764808594.075089,0.09277765241861342,5.063914790406823,-1.1927450460214166,-2.098092794418335,0.09934671968221664,-5.32119083404541,,,,,,
1764808594.075927,,,,,,,0.7331416606903076,0.03989994525909424,0.3743879199028015,-0.49770304560661316,-1.7174185514450073,5.228187084197998
1764808594.085141,0.27884266034364696,5.520270318907499,-1.1399182226538658,-2.0366015434265137,-0.2849210798740387,-5.3769612312316895,,,,,,
1764808594.085957,,,,,,,0.750770092010498,0.07480531930923462,0.35432764887809753,-0.971918523311615,-1.84273362159729,5.16461706161499
1764808594.095194,0.3914356048226356,5.6090498416006564,-1.5546902794003485,-1.9559078216552734,-0.6834440231323242,-5.429211139678955,,,,,,
1764808594.095988,,,,,,,0.7751092910766602,0.06299561262130737,0.39425355195999146,-1.713462471961975,-1.9997495412826538,5.121789455413818
1764808594.105246,0.7980331229418516,5.3958402216404675,-2.1945126160264015,-1.8870697021484375,-1.070032000541687,-5.43388032913208,,,,,,
1764808594.106018,,,,,,,0.7745258808135986,0.013041555881500244,0.4534150958061218,-2.621248960494995,-2.12882137298584,5.105152606964111
1764808594.115298,1.5956325306415557,5.129353769522905,-2.629226221561432,-1.8499501943588257,-1.451430082321167,-5.33043909072876,,,,,,
1764808594.116048,,,,,,,0.7779595255851746,-0.05352604389190674,0.5233306884765625,-3.4993703365325928,-2.239865779876709,5.077230930328369
1764808594.12535,2.564440737918019,4.893316523943841,-2.668082898700237,-1.8484971523284912,-1.8318707942962646,-5.131482124328613,,,,,,
1764808594.126078,,,,,,,0.7835139036178589,-0.059906184673309326,0.621897280216217,-4.2516584396362305,-2.3378512859344482,4.949193000793457
1764808594.135403,3.0997774486750362,4.749390868090093,-2.5267238784641024,-1.8511139154434204,-2.185699224472046,-4.894294261932373,,,,,,
1764808594.136108,,,,,,,0.7892870306968689,0.08964967727661133,0.6823177337646484,-4.594785690307617,-2.3956353664398193,4.779942512512207
1764808594.145455,2.841196655115485,4.850326692523062,-2.509076578092575,-1.8573883771896362,-2.4372129440307617,-4.673809051513672,,,,,,
1764808594.146138,,,,,,,0.7989144325256348,0.3045119643211365,0.6596653461456299,-4.468085289001465,-2.5579946041107178,4.616204738616943
1764808594.155507,1.8992986665964124,5.02928654461801,-2.4827608180969953,-1.9273761510849,-2.5208539962768555,-4.502183437347412,,,,,,
1764808594.156168,,,,,,,0.7997869253158569,0.4817952513694763,0.5728237628936768,-4.009796142578125,-2.7633516788482666,4.3998589515686035
1764808594.16556,0.7721709519326686,4.831852878199517,-2.2246213385641576,-2.096430778503418,-2.415148973464966,-4.3656721115112305,,,,,,
1764808594.166198,,,,,,,0.7479039430618286,0.6030298471450806,0.4522230625152588,-3.2681214809417725,-2.889630079269409,4.1553168296813965
1764808594.175612,-0.11627367881834506,4.107485003188252,-1.850397565305233,-2.3431155681610107,-2.1314148902893066,-4.254336357116699,,,,,,
1764808594.176228,,,,,,,0.6682106852531433,0.6606664657592773,0.3465306758880615,-2.44779372215271,-2.9849348068237305,3.968928098678589
1764808594.185664,-0.7116647530436515,3.2632799116581674,-1.7430302465200422,-2.5917155742645264,-1.7009756565093994,-4.181599140167236,,,,,,
1764808594.186258,,,,,,,0.6153991222381592,0.6503617167472839,0.285317063331604,-1.751015067100525,-3.077247381210327,3.829982042312622
1764808594.195716,-0.9734206695079803,2.7739015267387033,-1.9541034389734266,-2.7918460369110107,-1.2250136137008667,-4.161549091339111,,,,,,
1764808594.196288,,,,,,,0.5862368941307068,0.561631977558136,0.29069602489471436,-1.257201075553894,-3.1219916343688965,3.7918028831481934
1764808594.205769,-0.7648544914394617,2.7945316423133013,-2.2387908798225222,-2.9092917442321777,-0.8307813405990601,-4.1819868087768555,,,,,,
1764808594.206318,,,,,,,0.5652914643287659,0.4364668130874634,0.3332010507583618,-1.002020239830017,-3.139939785003662,3.807558536529541
1764808594.215821,-0.0947615197122097,3.3085423641860485,-2.5028239474385976,-2.910294532775879,-0.6047966480255127,-4.227336406707764,,,,,,
1764808594.216348,,,,,,,0.5476367473602295,0.32211434841156006,0.4083057641983032,-0.954066812992096,-3.101803779602051,3.841668128967285
1764808594.225873,0.8779887031883001,4.108351849150657,-2.6710025855392217,-2.7873809337615967,-0.6168426275253296,-4.248385906219482,,,,,,
1764808594.226379,,,,,,,0.542863667011261,0.21780258417129517,0.4980466365814209,-1.0486077070236206,-3.014225721359253,3.9243481159210205
1764808594.235926,1.862085665011406,4.768292552436888,-2.4161925426900384,-2.619875431060791,-0.8632532358169556,-4.223301410675049,,,,,,
1764808594.236409,,,,,,,0.5458534955978394,0.13766342401504517,0.557802677154541,-1.2346175909042358,-2.909844398498535,3.997868776321411
1764808594.245978,2.4000679218411443,5.0428269941926,-1.9342606743842363,-2.4820353984832764,-1.20644211769104,-4.210890293121338,,,,,,
1764808594.246439,,,,,,,0.5515553951263428,0.09473508596420288,0.5519372224807739,-1.4451202154159546,-2.7896454334259033,4.043319225311279
1764808594.25603,2.3181880955338476,4.852707450179755,-1.5946750837862491,-2.404331922531128,-1.5343867540359497,-4.247767448425293,,,,,,
1764808594.256469,,,,,,,0.5724053382873535,0.08618342876434326,0.5130378007888794,-1.7294788360595703,-2.700983762741089,4.051595687866211
1764808594.266082,1.9567296958237885,4.555077379518747,-1.3899820938892662,-2.3419337272644043,-1.7744742631912231,-4.320762634277344,,,,,,
1764808594.266499,,,,,,,0.6236293315887451,0.11097460985183716,0.49092578887939453,-2.051936149597168,-2.6712958812713623,4.015780925750732
1764808594.276135,1.7796020275920628,4.624384139978885,-1.4370130173943936,-2.2480313777923584,-1.9081158638000488,-4.34598970413208,,,,,,
1764808594.276529,,,,,,,0.6775440573692322,0.13914132118225098,0.5132791996002197,-2.2870755195617676,-2.6536667346954346,4.044802665710449
1764808594.286187,1.8690046506196258,4.702787814608216,-1.4681379312373697,-2.1836910247802734,-1.9550797939300537,-4.280736446380615,,,,,,
1764808594.286559,,,,,,,0.6879677772521973,0.15488171577453613,0.504136323928833,-2.2754034996032715,-2.5954952239990234,4.136125087738037
1764808594.296239,1.7366332389593124,4.481631035035848,-1.1886394373334943,-2.205543041229248,-1.8902900218963623,-4.198688507080078,,,,,,
1764808594.296589,,,,,,,0.6417363882064819,0.1807335615158081,0.4523557424545288,-2.123352527618408,-2.5111117362976074,4.161619186401367
1764808594.306291,1.0727823764920235,3.954566478061676,-1.0759744505316018,-2.2841854095458984,-1.7334744930267334,-4.18239164352417,,,,,,
1764808594.306619,,,,,,,0.5823307633399963,0.24752652645111084,0.39012807607650757,-1.8709442615509033,-2.3685240745544434,4.117245197296143
1764808594.316344,0.2602770760834217,3.281698196402192,-1.2502550587691366,-2.3809945583343506,-1.5190509557724,-4.226691722869873,,,,,,
1764808594.316649,,,,,,,0.5596773624420166,0.31704241037368774,0.31669220328330994,-1.4574286937713623,-2.2689547538757324,4.12952995300293
1764808594.326396,-0.21879648018181322,2.9061335299283266,-1.3133837151162326,-2.4906485080718994,-1.242597222328186,-4.286895275115967,,,,,,
1764808594.326679,,,,,,,0.5790433883666992,0.36541682481765747,0.2694462835788727,-1.0539683103561401,-2.28355073928833,4.170932769775391
1764808594.336448,-0.27318098132014274,2.9415485421806573,-1.240022272437811,-2.586168050765991,-0.9129724502563477,-4.312805652618408,,,,,,
1764808594.336709,,,,,,,0.6038587093353271,0.38552749156951904,0.2607903778553009,-0.794285237789154,-2.3251407146453857,4.197941780090332
1764808594.346501,-0.08586509655117988,3.2293729658812285,-1.386467802157998,-2.6271820068359375,-0.5980836749076843,-4.291403770446777,,,,,,
1764808594.346739,,,,,,,0.606680691242218,0.32238060235977173,0.2655981183052063,-0.678327202796936,-2.370604991912842,4.269932746887207
1764808594.356553,0.20360592531263827,3.3432033432006834,-1.6087077007919548,-2.648188591003418,-0.38154417276382446,-4.261999130249023,,,,,,
1764808594.35677,,,,,,,0.5919621586799622,0.2229553461074829,0.28377023339271545,-0.7556442022323608,-2.4335110187530518,4.376028060913086
1764808594.366605,0.4714882157027721,3.245785756021738,-1.5856360372841358,-2.6820785999298096,-0.30388906598091125,-4.265149116516113,,,,,,
1764808594.3668,,,,,,,0.5864233374595642,0.16508686542510986,0.29707813262939453,-0.8628407120704651,-2.4725539684295654,4.491055488586426
1764808594.376657,0.7080348721086979,3.0976527116060257,-1.3817834437340497,-2.7413454055786133,-0.3586764633655548,-4.307580471038818,,,,,,
1764808594.37683,,,,,,,0.6022845506668091,0.15803831815719604,0.2754160165786743,-0.9261254072189331,-2.5315587520599365,4.550246238708496
1764808594.38671,0.9846095875203609,3.103312052541971,-1.0737889231860638,-2.8397958278656006,-0.5133463144302368,-4.359436511993408,,,,,,
1764808594.38686,,,,,,,0.6314476728439331,0.18937522172927856,0.25349390506744385,-0.9706470370292664,-2.603555202484131,4.548892974853516
1764808594.396762,1.3684794332638381,3.430177862298488,-0.6706207949936389,-2.9742536544799805,-0.7594567537307739,-4.38373327255249,,,,,,
1764808594.39689,,,,,,,0.6851783394813538,0.23400068283081055,0.25340092182159424,-0.9538066983222961,-2.6580636501312256,4.500703811645508
1764808594.406814,1.6688412669762969,4.054426197695732,-0.3596750234246254,-3.0822248458862305,-1.0383647680282593,-4.346702575683594,,,,,,
1764808594.40692,,,,,,,0.7511789202690125,0.2806956171989441,0.2753485441207886,-0.9334995150566101,-2.725959062576294,4.452096462249756
1764808594.416866,1.8686568600952624,4.946304310026765,-0.42045368257947263,-3.082740306854248,-1.26878023147583,-4.240357875823975,,,,,,
1764808594.41695,,,,,,,0.8091440200805664,0.3098800480365753,0.34589922428131104,-0.9036566615104675,-2.803617000579834,4.424062728881836
1764808594.426919,1.7664502850741146,5.709792189288139,-0.7966027248125522,-3.0058531761169434,-1.4219638109207153,-4.106888294219971,,,,,,
1764808594.42698,,,,,,,0.8192225694656372,0.2849124073982239,0.4468024969100952,-0.9233584403991699,-2.7986080646514893,4.354091167449951
1764808594.436971,1.4079673940435051,6.233163152441382,-1.0039163455367088,-2.9078562259674072,-1.5508149862289429,-3.995595693588257,,,,,,
1764808594.43701,,,,,,,0.8049898743629456,0.2856124937534332,0.4921003580093384,-0.9084627032279968,-2.7362279891967773,4.3012776374816895
1764808594.447023,0.9210971925526856,6.587129735091328,-0.8260359592415392,-2.796551465988159,-1.648826241493225,-3.9054460525512695,,,,,,
1764808594.44704,,,,,,,0.8012402653694153,0.334713876247406,0.5037823915481567,-0.716946542263031,-2.6468584537506104,4.217166900634766
1764808594.45707,,,,,,,0.781516432762146,0.40824225544929504,0.4927043914794922,-0.4462875425815582,-2.466865301132202,4.067096710205078
1764808594.457076,0.5805728597998618,6.671669720518588,-0.5955098782993853,-2.689058542251587,-1.6824065446853638,-3.8104517459869385,,,,,,
1764808594.4671,,,,,,,0.7434110641479492,0.48477235436439514,0.47792232036590576,-0.07351210713386536,-2.2000153064727783,3.9265997409820557
1764808594.467128,0.4529113793961704,6.715896400257945,-0.37709392186775803,-2.5780556201934814,-1.6834665536880493,-3.6778039932250977,,,,,,
1764808594.47713,,,,,,,0.7068347334861755,0.5318605899810791,0.4684980511665344,0.29050159454345703,-1.8917181491851807,3.7976725101470947
1764808594.47718,0.39357685463503,6.929180839020013,-0.16429887405782936,-2.45131778717041,-1.6927592754364014,-3.494713068008423,,,,,,
1764808594.48716,,,,,,,0.688416063785553,0.5394300222396851,0.46501266956329346,0.5730022192001343,-1.5981431007385254,3.6622066497802734
1764808594.487232,0.3186612413171679,7.35127578600049,-0.13856412882059813,-2.3032631874084473,-1.7345519065856934,-3.288907766342163,,,,,,
1764808594.497191,,,,,,,0.674055814743042,0.479072630405426,0.4913361072540283,0.6905241012573242,-1.342212200164795,3.5250368118286133
1764808594.497285,0.17557130563519893,7.5762915790885685,-0.4197708879470825,-2.1070711612701416,-1.7622240781784058,-3.124476671218872,,,,,,
1764808594.507221,,,,,,,0.6467370390892029,0.38311055302619934,0.5288673639297485,0.6217884421348572,-1.1143505573272705,3.4056084156036377
1764808594.507337,-0.006133534318953752,7.402099379786849,-0.8811658719196915,-1.8564718961715698,-1.7109142541885376,-3.0175445079803467,,,,,,
1764808594.517251,,,,,,,0.5825029611587524,0.25689899921417236,0.5864241719245911,0.36097848415374756,-0.8710212111473083,3.2913944721221924
1764808594.517389,-0.15293392362510785,6.976064755269885,-1.2746361974403262,-1.6046435832977295,-1.5410964488983154,-2.9545884132385254,,,,,,
1764808594.527281,,,,,,,0.5112192034721375,0.15336626768112183,0.5903210639953613,0.020554309710860252,-0.6090761423110962,3.2006731033325195
1764808594.527441,-0.27398468065215276,6.4110542062610385,-1.4735808529436587,-1.386071801185608,-1.3422867059707642,-2.907770872116089,,,,,,
1764808594.537311,,,,,,,0.4692090153694153,0.1326947957277298,0.52626633644104,-0.2520752251148224,-0.3446977436542511,3.11841082572937
1764808594.537494,-0.48879313237741584,5.871514783117175,-1.5468398581609129,-1.2463458776474,-1.1568256616592407,-2.8619792461395264,,,,,,
1764808594.547341,,,,,,,0.46567702293395996,0.20036433637142181,0.4300437569618225,-0.3600757122039795,-0.1948259472846985,3.0760319232940674
1764808594.547546,-0.6864200563456863,5.4041684895247215,-1.5549156125888228,-1.204031229019165,-0.984347939491272,-2.8374240398406982,,,,,,
1764808594.557371,,,,,,,0.5013397932052612,0.27081823348999023,0.3270342946052551,-0.30954205989837646,-0.16159795224666595,3.0518741607666016
1764808594.557598,-0.6871707285825163,4.975525143814087,-1.598480029027164,-1.2248220443725586,-0.8075043559074402,-2.8287763595581055,,,,,,
1764808594.567401,,,,,,,0.5399736762046814,0.28666308522224426,0.2791042923927307,-0.23979653418064117,-0.2057792693376541,3.0192291736602783
1764808594.567651,-0.5020587835986167,4.67743534668684,-1.7923264846086502,-1.257045030593872,-0.5940663814544678,-2.8153183460235596,,,,,,
1764808594.577431,,,,,,,0.5398819446563721,0.29256975650787354,0.2772347331047058,-0.1823217123746872,-0.24140436947345734,3.0439999103546143
1764808594.577703,-0.27306824166066945,4.518028044062852,-2.081300078344345,-1.2764124870300293,-0.32908785343170166,-2.7758100032806396,,,,,,
1764808594.587461,,,,,,,0.5082128047943115,0.278858482837677,0.2814110517501831,-0.12703661620616913,-0.24752990901470184,3.059037208557129
1764808594.587755,-0.01843026744276285,4.592569782567024,-2.357662612310052,-1.2790518999099731,-0.08805898576974869,-2.713989496231079,,,,,,
1764808594.597491,,,,,,,0.46504026651382446,0.2784899175167084,0.3007749915122986,-0.135856032371521,-0.20947520434856415,3.097641944885254
1764808594.597807,0.1462897546365857,4.551801134327054,-2.5254975515395404,-1.273174524307251,0.09207233041524887,-2.6776280403137207,,,,,,
1764808594.607521,,,,,,,0.4666447639465332,0.24695639312267303,0.32377249002456665,-0.20304039120674133,-0.2356993407011032,3.094977617263794
1764808594.60786,0.2508575058311224,4.641148812296986,-2.559880298134684,-1.2427220344543457,0.18923458456993103,-2.685788631439209,,,,,,
1764808594.617551,,,,,,,0.4753105044364929,0.21568791568279266,0.34388649463653564,-0.3899838924407959,-0.2370799332857132,3.0874598026275635
1764808594.617912,0.42086014448851344,4.7609945043832065,-2.3874346502393484,-1.2039116621017456,0.1785575896501541,-2.748413324356079,,,,,,
1764808594.627581,,,,,,,0.4805433750152588,0.1861150860786438,0.3526865243911743,-0.5845714807510376,-0.2484758496284485,3.0814321041107178
1764808594.627964,0.7266158000685274,4.769312835395336,-2.102204334685206,-1.1530619859695435,0.05976169556379318,-2.8262476921081543,,,,,,
1764808594.637612,,,,,,,0.47834938764572144,0.16265875101089478,0.356730580329895,-0.8208940029144287,-0.24945083260536194,3.0393099784851074
1764808594.638016,1.1478203740805386,4.76400946829021,-1.9027151970416307,-1.093158483505249,-0.10163049399852753,-2.900217056274414,,,,,,
1764808594.647642,,,,,,,0.45344078540802,0.20464181900024414,0.3477210998535156,-0.9439374208450317,-0.1891201287508011,3.0062952041625977
1764808594.648069,1.5637626436501741,4.51075776079893,-1.9061206215709448,-1.0187032222747803,-0.2413223534822464,-2.945362091064453,,,,,,
1764808594.657672,,,,,,,0.41790223121643066,0.3042047917842865,0.3260077238082886,-0.9184374809265137,-0.10974355041980743,2.9721829891204834
1764808594.658121,1.9597636566922068,4.3593397033631796,-1.8490648553967475,-0.9220148324966431,-0.3266463279724121,-2.9214580059051514,,,,,,
1764808594.667702,,,,,,,0.3902076482772827,0.40890178084373474,0.2746388912200928,-0.8150448203086853,-0.017631202936172485,2.923823118209839
1764808594.668173,2.392771042831242,4.386940826994181,-1.6491665524303911,-0.83595210313797,-0.3919489085674286,-2.8399319648742676,,,,,,
1764808594.677732,,,,,,,0.373543381690979,0.4644867479801178,0.20004624128341675,-0.6665669679641724,0.03488154336810112,2.8719475269317627
1764808594.678225,2.788933968436718,4.2785587782084935,-1.3394020996004343,-0.7840259671211243,-0.48856255412101746,-2.7314984798431396,,,,,,
1764808594.687762,,,,,,,0.356722891330719,0.4830872118473053,0.13629865646362305,-0.5121374726295471,0.09081457555294037,2.7856252193450928
1764808594.688278,3.067132777918875,3.8647874229371544,-1.0518702291056514,-0.7452570199966431,-0.5964642763137817,-2.609003782272339,,,,,,
1764808594.697792,,,,,,,0.32878637313842773,0.51534104347229,0.09172248840332031,-0.29250583052635193,0.14237844944000244,2.713221311569214
1764808594.69833,3.1524621601581573,3.2753146328449247,-0.9688526309400797,-0.6973873972892761,-0.6321755647659302,-2.478839874267578,,,,,,
1764808594.707822,,,,,,,0.2906489372253418,0.5326718091964722,0.04753142595291138,-0.10148285329341888,0.19748803973197937,2.625253677368164
1764808594.708382,2.9546570300787685,2.8208699064016343,-0.9940133756816386,-0.658180832862854,-0.5293642282485962,-2.3540101051330566,,,,,,
1764808594.717852,,,,,,,0.24329644441604614,0.5129917860031128,0.0013417601585388184,-0.0344977043569088,0.26154211163520813,2.520280122756958
1764808594.718435,2.5799030954658986,2.420041034811735,-0.9288324629798531,-0.6690729260444641,-0.35895565152168274,-2.2684543132781982,,,,,,
1764808594.727882,,,,,,,0.21335017681121826,0.4863569140434265,-0.026592068374156952,-0.024862121790647507,0.2913290560245514,2.473789930343628
1764808594.728487,2.248846556021273,2.0132003555864095,-0.6963385890960693,-0.7132981419563293,-0.18879669904708862,-2.242548704147339,,,,,,
1764808594.737912,,,,,,,0.19808906316757202,0.47629427909851074,-0.05862348526716232,0.010961674153804779,0.27223631739616394,2.4151041507720947
1764808594.738539,2.2256951052755114,1.5995517499119043,-0.6530155801981687,-0.7639806866645813,-0.03887895867228508,-2.2671902179718018,,,,,,
1764808594.747942,,,,,,,0.16897112131118774,0.5040109753608704,-0.08241342753171921,0.06561800092458725,0.2595149278640747,2.3897061347961426
1764808594.748591,2.6435534375995395,1.2089011579871176,-0.8394961831867694,-0.8236871361732483,0.08318357169628143,-2.2915561199188232,,,,,,
1764808594.757973,,,,,,,0.1469699740409851,0.5161464810371399,-0.10523790121078491,0.10475470870733261,0.219072163105011,2.3720667362213135
1764808594.758644,3.4897669463425873,1.1312053393661976,-0.9762725518077612,-0.8688653111457825,0.15293224155902863,-2.2755205631256104,,,,,,
1764808594.768003,,,,,,,0.13712430000305176,0.5126253962516785,-0.10845588892698288,0.09054487943649292,0.16241154074668884,2.344224452972412
1764808594.768696,4.3987849940449,1.1942805119603872,-1.0855407357782125,-0.8891735076904297,0.17328518629074097,-2.2161672115325928,,,,,,
1764808594.778033,,,,,,,0.1338977813720703,0.535395622253418,-0.1159706711769104,0.0916500985622406,0.08630345016717911,2.3403067588806152
1764808594.778748,5.098649419179559,1.1544903533637523,-1.2245844648092985,-0.8827869892120361,0.1732894480228424,-2.1314303874969482,,,,,,
1764808594.788063,,,,,,,0.08801400661468506,0.604213535785675,-0.1730736345052719,0.13087020814418793,0.018050627782940865,2.3133747577667236
1764808594.7888,5.618246709012985,1.0021621953457593,-1.2661135760277509,-0.886683464050293,0.11500909179449081,-2.025693893432617,,,,,,
1764808594.798093,,,,,,,0.10247546434402466,0.6219926476478577,-0.1738712042570114,0.1572200506925583,-0.04623674601316452,2.2532238960266113
1764808594.798853,5.984664192435145,0.8110019101083278,-1.068771387284994,-0.913582980632782,0.01199567411094904,-1.9161781072616577,,,,,,
1764808594.808123,,,,,,,0.08300048112869263,0.6584058403968811,-0.19145947694778442,0.17861761152744293,-0.12296374887228012,2.1636016368865967
