timestamp,phone_accel_x,phone_accel_y,phone_accel_z,phone_gyro_x,phone_gyro_y,phone_gyro_z,watch_accel_x,watch_accel_y,watch_accel_z,watch_gyro_x,watch_gyro_y,watch_gyro_z
1764808610.328462,2.0270754439428447,0.5724217020481824,-1.908365770149231,1.1708813905715942,-0.6822760701179504,1.8995169401168823,,,,,,
1764808610.334691,,,,,,,0.02509063482284546,0.3144734501838684,-0.010560750961303711,-0.3645092248916626,-1.0466431379318237,-2.1250247955322266
1764808610.338515,1.82297793572098,0.26365619712769983,-2.321454988375306,1.2236049175262451,-0.5760922431945801,1.875456690788269,,,,,,
1764808610.344721,,,,,,,-0.04764765501022339,0.37144607305526733,-0.03825652599334717,-0.23641180992126465,-0.8499971032142639,-2.0781891345977783
1764808610.348567,1.8420771884664893,0.36452947771847244,-2.4687901604115963,1.223469614982605,-0.35579100251197815,1.880918264389038,,,,,,
1764808610.354751,,,,,,,-0.03052830696105957,0.37636107206344604,-0.0774073600769043,-0.06353191286325455,-0.6516180038452148,-2.0731308460235596
1764808610.358619,2.043893892274797,1.018686629167199,-2.1229256356745956,1.1705913543701172,-0.18327349424362183,1.9397003650665283,,,,,,
1764808610.364781,,,,,,,0.08269929885864258,0.38768112659454346,-0.144728422164917,0.013220460154116154,-0.49451199173927307,-2.1527762413024902
1764808610.368672,2.4653172236040235,2.4948271034657954,-1.3271277244389057,1.1079237461090088,-0.20629599690437317,2.0810041427612305,,,,,,
1764808610.374811,,,,,,,0.27149826288223267,0.35890769958496094,-0.14256227016448975,-0.007038738578557968,-0.6760737895965576,-2.26353120803833
1764808610.378724,2.2729513619691133,3.6588989396452902,-1.14166360501647,1.1920918226242065,-0.35968858003616333,2.227248191833496,,,,,,
1764808610.384841,,,,,,,0.4181959629058838,0.30704325437545776,-0.025203466415405273,-0.005012174136936665,-0.9700607061386108,-2.4373972415924072
1764808610.388777,1.0818047641202806,3.8155496370375155,-1.7174229270547627,1.4072558879852295,-0.40891233086586,2.2849533557891846,,,,,,
1764808610.394871,,,,,,,0.4170212745666504,0.3310818374156952,0.09391731023788452,0.17172078788280487,-1.0899370908737183,-2.5174126625061035
1764808610.398829,-0.2792430578380823,3.855407015651464,-1.9901339527755975,1.6355112791061401,-0.23226311802864075,2.2917938232421875,,,,,,
1764808610.404901,,,,,,,0.30008745193481445,0.36432167887687683,0.17093849182128906,0.41621872782707214,-1.0063101053237915,-2.5519509315490723
1764808610.408881,-1.3050066396541893,3.616998072504997,-1.869349518534541,1.8014591932296753,0.16415107250213623,2.2440240383148193,,,,,,
1764808610.414932,,,,,,,0.16249966621398926,0.3599262237548828,0.12802261114120483,0.6113733649253845,-0.706597626209259,-2.6486473083496094
1764808610.418934,-1.6154826017543673,2.990904401502013,-1.340814304485917,1.8108410835266113,0.6237367987632751,2.1802992820739746,,,,,,
1764808610.424962,,,,,,,0.1332852840423584,0.33610713481903076,0.006620284169912338,0.8056884407997131,-0.42070329189300537,-2.7309627532958984
1764808610.428986,-0.9409379113152623,2.6613872004538774,-0.5232113886773586,1.70267915725708,0.9424535036087036,2.2028744220733643,,,,,,
1764808610.434992,,,,,,,0.2619178295135498,0.33559632301330566,-0.09894740581512451,0.9449707269668579,-0.36612313985824585,-2.805185079574585
1764808610.439039,0.27478520164638753,3.0686744544029234,0.21943068643212318,1.6024879217147827,0.9930443167686462,2.3672497272491455,,,,,,
1764808610.445022,,,,,,,0.45004379749298096,0.2845025956630707,-0.08859103918075562,0.9383020401000977,-0.6164072751998901,-2.9211905002593994
1764808610.449091,0.9202620569027959,3.3833161578804254,0.19916122086346147,1.6139967441558838,0.8769859075546265,2.590895891189575,,,,,,
1764808610.455052,,,,,,,0.5491635799407959,0.18564337491989136,0.013800682500004768,0.8429169058799744,-0.9281222820281982,-3.0117454528808594
1764808610.459143,0.7035434059083462,3.3516625439882275,-0.19519582436382768,1.7086234092712402,0.7195647358894348,2.7414019107818604,,,,,,
1764808610.465082,,,,,,,0.5143600702285767,0.051768362522125244,0.1325465440750122,0.7754676938056946,-1.0657838582992554,-2.9891579151153564
1764808610.469196,0.03836524036005139,3.073102792239189,-0.49416357336938377,1.8161258697509766,0.5894948840141296,2.735675096511841,,,,,,
1764808610.475112,,,,,,,0.37565869092941284,0.002865612506866455,0.19652974605560303,0.7166587114334106,-0.9854130148887634,-2.9568631649017334
1764808610.479248,-0.577540433301404,2.504388128015399,-0.49235272455513474,1.85724937915802,0.491916298866272,2.5835514068603516,,,,,,
1764808610.485142,,,,,,,0.24190080165863037,0.0429791659116745,0.16179150342941284,0.6805723309516907,-0.7166411876678467,-2.9195175170898438
1764808610.489301,-0.5279333026327192,2.207725148820877,0.11826251454800367,1.777021884918213,0.4097242057323456,2.4220104217529297,,,,,,
1764808610.495172,,,,,,,0.2558162808418274,0.04134209454059601,0.07283389568328857,0.6389854550361633,-0.5891916155815125,-2.835920572280884
1764808610.499353,0.12201309925317763,2.4776181945115328,0.7579357980921864,1.6585502624511719,0.2606019079685211,2.3727967739105225,,,,,,
1764808610.505202,,,,,,,0.3990594148635864,-0.030182048678398132,0.0296059288084507,0.5056223273277283,-0.7388932704925537,-2.827106237411499
1764808610.509405,0.4775384556524455,2.7004250793784856,0.8926391598314046,1.5879496335983276,0.03843596205115318,2.424100637435913,,,,,,
1764808610.515232,,,,,,,0.5013551712036133,-0.060141146183013916,0.053340911865234375,0.39668017625808716,-0.9376406669616699,-2.8901703357696533
1764808610.519458,0.18651815852001308,2.7438258296877143,0.6324298882871866,1.57626211643219,-0.14818060398101807,2.501702070236206,,,,,,
1764808610.525263,,,,,,,0.493749737739563,-0.04122421145439148,0.07057381421327591,0.3375746011734009,-1.0303025245666504,-2.8845484256744385
1764808610.52951,-0.36522940614875404,2.927437014719844,0.5156380308136344,1.6217315196990967,-0.2433401346206665,2.5634374618530273,,,,,,
1764808610.535293,,,,,,,0.4270341992378235,-0.04107155650854111,0.12107373028993607,0.2664423882961273,-1.0563125610351562,-2.8581840991973877
1764808610.539563,-0.9349845558688044,3.04814663015902,0.5853291144162416,1.6921864748001099,-0.2577340602874756,2.5800795555114746,,,,,,
1764808610.545323,,,,,,,0.34506702423095703,-0.10637283325195312,0.17805279791355133,0.156711146235466,-0.9885336756706238,-2.869992733001709
1764808610.549615,-1.585485669028014,2.804507969665527,0.619297727252543,1.7445815801620483,-0.2058926820755005,2.5116941928863525,,,,,,
1764808610.555353,,,,,,,0.28363728523254395,-0.1438886970281601,0.19160497188568115,0.023165594786405563,-0.8421424031257629,-2.8957996368408203
1764808610.559667,-2.081396524456143,2.3282219982922077,0.7846271134018897,1.7241759300231934,-0.12620802223682404,2.380932092666626,,,,,,
1764808610.565383,,,,,,,0.27442872524261475,-0.09277227520942688,0.13946537673473358,-0.054331544786691666,-0.6530827283859253,-2.891401767730713
1764808610.569721,-1.9279715111121534,2.42320212919116,1.3761892769888042,1.612640380859375,-0.1274927407503128,2.2939820289611816,,,,,,
1764808610.575413,,,,,,,0.36935126781463623,-0.08375522494316101,0.07892800122499466,-0.17920850217342377,-0.6383216381072998,-2.8631649017333984
1764808610.579772,-1.4245949959784745,2.9844974570691583,1.6540239293336867,1.518498182296753,-0.2096107304096222,2.2834692001342773,,,,,,
1764808610.585443,,,,,,,0.4958658814430237,-0.1333385556936264,0.1015281230211258,-0.4294030964374542,-0.8005906939506531,-2.912018299102783
1764808610.589824,-1.2574554916672407,3.2533278419643636,1.277264500117302,1.4874204397201538,-0.28017571568489075,2.3105459213256836,,,,,,
1764808610.595473,,,,,,,0.5308735966682434,-0.17374548316001892,0.1467290073633194,-0.7224054336547852,-0.9303755760192871,-2.9704675674438477
1764808610.599877,-1.4405413376510143,3.2013252675265074,0.9014563802763819,1.499204397201538,-0.2996169328689575,2.3306405544281006,,,,,,
1764808610.605503,,,,,,,0.46974098682403564,-0.19396032392978668,0.19482852518558502,-1.0773992538452148,-0.9547927975654602,-2.9423446655273438
1764808610.609929,-1.7362547610357402,2.998290420100093,0.6810042418420315,1.536512017250061,-0.2835807204246521,2.306248903274536,,,,,,
1764808610.615533,,,,,,,0.3684237599372864,-0.25278574228286743,0.2647671103477478,-1.3473106622695923,-0.8728249669075012,-2.8609118461608887
1764808610.619982,-2.0008697201929984,2.5416098974287507,0.4886778354346752,1.5676543712615967,-0.24029681086540222,2.2126269340515137,,,,,,
1764808610.625563,,,,,,,0.2680205702781677,-0.33429449796676636,0.28732141852378845,-1.4409818649291992,-0.5739191770553589,-2.773940086364746
1764808610.630034,-2.153717225909978,2.142775999048352,0.5794087844565511,1.5357455015182495,-0.1833067685365677,2.0540616512298584,,,,,,
1764808610.635594,,,,,,,0.2225341796875,-0.2590806782245636,0.2193574458360672,-1.3603607416152954,-0.24589313566684723,-2.6323864459991455
1764808610.640086,-2.0601039994500576,2.337269812622666,1.0773322948813437,1.4476172924041748,-0.17234399914741516,1.8820141553878784,,,,,,
1764808610.645624,,,,,,,0.31724458932876587,-0.14957955479621887,0.12899620831012726,-1.1656725406646729,-0.1873171627521515,-2.4924473762512207
1764808610.650139,-1.7732523663043975,2.792512995967269,1.4345876899436116,1.3890689611434937,-0.20164328813552856,1.765109896659851,,,,,,
1764808610.655654,,,,,,,0.44793450832366943,-0.1070399284362793,0.07353027164936066,-0.9598581194877625,-0.2958220839500427,-2.4093098640441895
1764808610.660191,-1.4913529487386346,3.1734757220923897,1.618975996828079,1.3625633716583252,-0.2653144896030426,1.7487599849700928,,,,,,
1764808610.665684,,,,,,,0.5084785223007202,-0.13759121298789978,0.046674877405166626,-0.7970485687255859,-0.38600391149520874,-2.3333258628845215
1764808610.670244,-1.4886413516923784,3.3193647869735954,1.6869618839479983,1.3592640161514282,-0.32214608788490295,1.7881830930709839,,,,,,
1764808610.675714,,,,,,,0.4978601932525635,-0.17576858401298523,0.06451527774333954,-0.6737897396087646,-0.4006723165512085,-2.259883403778076
1764808610.680296,-1.7582962047129869,3.2298335691303013,1.635356638264656,1.3862859010696411,-0.3384203314781189,1.8250962495803833,,,,,,
1764808610.685744,,,,,,,0.44344013929367065,-0.18567940592765808,0.10182508826255798,-0.5745687484741211,-0.35926151275634766,-2.2001028060913086
1764808610.690348,-2.1187001269340513,3.068956778475642,1.4685280995987355,1.4400668144226074,-0.2912112772464752,1.8223108053207397,,,,,,
1764808610.695774,,,,,,,0.3823719620704651,-0.1901399791240692,0.1477872133255005,-0.51875239610672,-0.33456653356552124,-2.125802755355835
1764808610.700401,-2.529576345285773,2.792823961612582,1.2445653226949274,1.5103956460952759,-0.1727263480424881,1.7587242126464844,,,,,,
1764808610.705804,,,,,,,0.33018380403518677,-0.27574363350868225,0.19363515079021454,-0.46545374393463135,-0.3252028524875641,-2.035343647003174
1764808610.710454,-2.95431800738275,2.1778338684260845,1.013894280324131,1.573446273803711,0.003040152369067073,1.6357964277267456,,,,,,
1764808610.715834,,,,,,,0.2597033977508545,-0.3688306510448456,0.2036357969045639,-0.4561222791671753,-0.23459093272686005,-1.9539003372192383
1764808610.720506,-3.3040120272800326,1.3870207598656414,1.035745900517702,1.5732797384262085,0.19314979016780853,1.4603772163391113,,,,,,
1764808610.725864,,,,,,,0.18531113862991333,-0.3798364996910095,0.18037265539169312,-0.3621752858161926,-0.015060984529554844,-1.858984112739563
1764808610.730558,-3.3077412769362327,0.8147504489868879,1.5036394527293742,1.4721152782440186,0.33404991030693054,1.2674720287322998,,,,,,
1764808610.735894,,,,,,,0.15924888849258423,-0.327745646238327,0.11000438034534454,-0.13695892691612244,0.26484283804893494,-1.7313867807388306
1764808610.74061,-2.8627742806732654,0.8162199370175599,2.2040461680471894,1.3118393421173096,0.40278446674346924,1.1147774457931519,,,,,,
1764808610.745924,,,,,,,0.2203129529953003,-0.25776636600494385,0.0076417475938797,0.13525500893592834,0.4010600745677948,-1.592240571975708
1764808610.750663,-2.2777473640739916,1.47369074305892,2.594296362477541,1.173206090927124,0.42197734117507935,1.0604993104934692,,,,,,
1764808610.755955,,,,,,,0.3489682674407959,-0.2340332567691803,-0.04399764537811279,0.3684696853160858,0.28812873363494873,-1.5320619344711304
1764808610.760715,-1.873896514314413,2.064016935110092,2.551641462099552,1.0959843397140503,0.41414257884025574,1.0878328084945679,,,,,,
1764808610.765985,,,,,,,0.44048863649368286,-0.26640522480010986,-0.03343041241168976,0.5532752275466919,0.10155350714921951,-1.5360727310180664
1764808610.770768,-1.8365932040974497,2.2462492330044506,2.3147604591727253,1.069985032081604,0.40949589014053345,1.1493496894836426,,,,,,
1764808610.776015,,,,,,,0.4334714412689209,-0.30793192982673645,-0.006032153964042664,0.6683088541030884,0.011594594456255436,-1.5092449188232422
1764808610.78082,-2.1098761844873426,2.14800220926404,2.095145063823461,1.070573091506958,0.4298730194568634,1.1864176988601685,,,,,,
1764808610.786045,,,,,,,0.35571014881134033,-0.33405011892318726,0.03268557786941528,0.7267248630523682,0.029913412407040596,-1.443021297454834
1764808610.790872,-2.425674949045479,1.8827490983337163,2.0012357770264146,1.0911216735839844,0.46823370456695557,1.1750571727752686,,,,,,
1764808610.796075,,,,,,,0.2677845358848572,-0.3472566604614258,0.0790960043668747,0.7567389607429504,0.10438338667154312,-1.3767740726470947
1764808610.800925,-2.704381708049774,1.5566396599024532,1.8851999986171721,1.1225699186325073,0.522989809513092,1.119107723236084,,,,,,
1764808610.806105,,,,,,,0.20216137170791626,-0.3545408248901367,0.11115676164627075,0.789788007736206,0.179867222905159,-1.3189313411712646
1764808610.810977,-2.8967154209807515,1.1762345676600932,1.775744767642021,1.1469534635543823,0.5974565744400024,1.0353277921676636,,,,,,
1764808610.816135,,,,,,,0.16148120164871216,-0.35347557067871094,0.11717741191387177,0.8366039395332336,0.22462111711502075,-1.2624516487121582
1764808610.821029,-3.036014878338575,0.7557301047414541,1.7137082904458045,1.142301082611084,0.6709159016609192,0.9319139122962952,,,,,,
1764808610.826165,,,,,,,0.1378076672554016,-0.3564321994781494,0.10691463947296143,0.8850065469741821,0.2585069239139557,-1.1977487802505493
1764808610.831082,-3.072086600933969,0.3393289854884147,1.7048492766857146,1.0930261611938477,0.7281703948974609,0.8268955945968628,,,,,,
1764808610.836195,,,,,,,0.12342476844787598,-0.3603612184524536,0.09609849750995636,0.9183596968650818,0.2930385172367096,-1.1204787492752075
1764808610.841134,-2.963388325805962,0.03860708629190922,1.6367396170556545,1.0057640075683594,0.7731717228889465,0.7228593826293945,,,,,,
1764808610.846225,,,,,,,0.11520922183990479,-0.36437296867370605,0.08632630109786987,0.9460161328315735,0.3288612365722656,-1.0422627925872803
1764808610.851187,-2.691615749979019,-0.1341705700367689,1.6013807189047335,0.897381603717804,0.8148994445800781,0.6312714219093323,,,,,,
1764808610.856256,,,,,,,0.11280149221420288,-0.3628489375114441,0.06657366454601288,0.9838244915008545,0.3783923089504242,-0.949931800365448
1764808610.861239,-2.3433348117500543,-0.03034779199063778,1.6241186204135416,0.7879025936126709,0.843755304813385,0.5550805926322937,,,,,,
1764808610.866286,,,,,,,0.12439382076263428,-0.3516237139701843,0.052760377526283264,1.004402756690979,0.39725202322006226,-0.8515572547912598
1764808610.871291,-2.0213824929982422,0.20347966858446598,1.571709218740463,0.7037591934204102,0.8539168834686279,0.48855751752853394,,,,,,
1764808610.876316,,,,,,,0.14446020126342773,-0.3390725255012512,0.0492965430021286,1.0127273797988892,0.3707959055900574,-0.7688416242599487
1764808610.881344,-1.7676012086749076,0.4181535158783197,1.4348036707818508,0.6538094282150269,0.8418306708335876,0.4411328136920929,,,,,,
1764808610.886346,,,,,,,0.15490061044692993,-0.3294929265975952,0.053587108850479126,1.0044403076171875,0.338130384683609,-0.6844929456710815
1764808610.891396,-1.581590561285615,0.5407388620615006,1.3331424546837807,0.6272910237312317,0.802871584892273,0.3987507224082947,,,,,,
1764808610.896376,,,,,,,0.14727520942687988,-0.3241634964942932,0.0624862015247345,0.9826961755752563,0.3205668330192566,-0.5824168920516968
1764808610.901449,-1.5166618697792291,0.5040951847970485,1.2453379145026207,0.6026862859725952,0.7484988570213318,0.3538106083869934,,,,,,
1764808610.906406,,,,,,,0.12705320119857788,-0.3251890540122986,0.06922957301139832,0.9425230622291565,0.3238219916820526,-0.4726907014846802
1764808610.911501,-1.5074422060132027,0.38801556724607944,1.2037789926677942,0.5669645071029663,0.689235508441925,0.2979039251804352,,,,,,
1764808610.916436,,,,,,,0.10597234964370728,-0.32799631357192993,0.07117624580860138,0.8772231340408325,0.34133175015449524,-0.36592456698417664
1764808610.921553,-1.50504099009037,0.24675533120930193,1.1518828012138604,0.5127018690109253,0.6324187517166138,0.22122406959533691,,,,,,
1764808610.926466,,,,,,,0.09576982259750366,-0.322909951210022,0.07801301777362823,0.7936409711837769,0.34665700793266296,-0.2700490355491638
1764808610.931606,-1.5242273365974426,0.0963432359457016,1.0362667095214129,0.45047685503959656,0.5869399309158325,0.1271231323480606,,,,,,
1764808610.936496,,,,,,,0.0906481146812439,-0.3194628953933716,0.08568626642227173,0.7161051630973816,0.3473169505596161,-0.17677529156208038
1764808610.941659,-1.5333037925004958,0.01310381172299385,0.9354974738270043,0.3783651292324066,0.5503297448158264,0.021146457642316818,,,,,,
1764808610.946526,,,,,,,0.08527284860610962,-0.3143845200538635,0.08315646648406982,0.6425552368164062,0.3675798773765564,-0.08114875853061676
1764808610.95171,-1.4303735793799162,0.08240648052990436,0.9507739534139633,0.2975434958934784,0.5045763850212097,-0.08219245076179504,,,,,,
1764808610.956556,,,,,,,0.08444821834564209,-0.3027968406677246,0.07027378678321838,0.5683004260063171,0.39556464552879333,0.024185119196772575
1764808610.961763,-1.2727876469641923,0.2255599829673767,0.9458487719714641,0.22406449913978577,0.448675274848938,-0.17509184777736664,,,,,,
1764808610.966586,,,,,,,0.09539484977722168,-0.28867530822753906,0.055442407727241516,0.501493513584137,0.3929060101509094,0.11035308986902237
1764808610.971815,-1.0802210020601748,0.3569143265396356,0.8906330807060002,0.16892081499099731,0.37549853324890137,-0.2454831898212433,,,,,,
1764808610.976617,,,,,,,0.10817509889602661,-0.26304900646209717,0.03929080069065094,0.4287934899330139,0.3599581718444824,0.18076041340827942
1764808610.981869,-0.8819266271591186,0.42944940139651294,0.8470406072169542,0.12692181766033173,0.2816222906112671,-0.29103755950927734,,,,,,
1764808610.986647,,,,,,,0.11288172006607056,-0.23307883739471436,0.0345209538936615,0.36660560965538025,0.32770809531211853,0.2504245936870575
1764808610.99192,-0.7333563603699207,0.42072716575860974,0.8270289158016443,0.0916956439614296,0.18525874614715576,-0.3201698660850525,,,,,,
1764808610.996677,,,,,,,0.10505181550979614,-0.2078656554222107,0.03471297025680542,0.29898449778556824,0.3089274764060974,0.31501078605651855
1764808611.001972,-0.6562567540764809,0.39615328099429603,0.7575017905890942,0.06552863121032715,0.10526558011770248,-0.3419366776943207,,,,,,
1764808611.006707,,,,,,,0.09200036525726318,-0.1887919306755066,0.036764681339263916,0.2204573005437851,0.2916233241558075,0.3704953193664551
1764808611.012025,-0.6242518425285816,0.34833939041793344,0.6804308258682489,0.04807853326201439,0.04869178310036659,-0.36858853697776794,,,,,,
1764808611.016737,,,,,,,0.07896244525909424,-0.1826556921005249,0.040856242179870605,0.1382622867822647,0.2796715795993805,0.4071635901927948
1764808611.022077,-0.6470435200512409,0.24752163940668104,0.6078460666507483,0.030278116464614868,0.013698091730475426,-0.4053870141506195,,,,,,
1764808611.026767,,,,,,,0.0658370852470398,-0.17553770542144775,0.04079940915107727,0.06641774624586105,0.27675196528434753,0.4375908672809601
1764808611.03213,-0.687400080358982,0.14278408460319042,0.5898796173274516,0.008694262243807316,-0.007253528572618961,-0.4460662603378296,,,,,,
1764808611.036797,,,,,,,0.053274333477020264,-0.16108328104019165,0.036881089210510254,0.017101863399147987,0.27338680624961853,0.46473780274391174
1764808611.042182,-0.7519336350679398,0.0871539673179388,0.5495020142316818,-0.009110648185014725,0.002507600700482726,-0.46214553713798523,,,,,,
1764808611.046827,,,,,,,0.03989535570144653,-0.1444886326789856,0.029630422592163086,-0.019154751673340797,0.2740917205810547,0.4839004874229431
1764808611.052234,-0.8157268928036093,0.01009352399110794,0.4912216746985912,-0.03296884149312973,0.032631147652864456,-0.4801298677921295,,,,,,
1764808611.056857,,,,,,,0.027655184268951416,-0.12321507930755615,0.01978960633277893,-0.04978775978088379,0.2793932855129242,0.4978078007698059
1764808611.062287,-0.8276610762253404,-0.0930839418888092,0.45358314117789267,-0.062293604016304016,0.07286550849676132,-0.5040426850318909,,,,,,
1764808611.066887,,,,,,,0.01848745346069336,-0.10094141960144043,0.00998668372631073,-0.07073162496089935,0.28604745864868164,0.5165836811065674
1764808611.07234,-0.7660331798300146,-0.13734569294154644,0.4352390907138586,-0.09492931514978409,0.10873482376337051,-0.519955575466156,,,,,,
1764808611.076917,,,,,,,0.01654374599456787,-0.08600854873657227,0.0028287768363952637,-0.07496152073144913,0.28683042526245117,0.5364378690719604
1764808611.082393,-0.6356438818976282,-0.10104746811389922,0.39441900454759593,-0.13047973811626434,0.1406812220811844,-0.5306664705276489,,,,,,
1764808611.086948,,,,,,,0.018825531005859375,-0.07203912734985352,-0.008797958493232727,-0.05705563724040985,0.28761526942253113,0.541840672492981
1764808611.092445,-0.45341099948138,-0.017627426627278328,0.34478725089430806,-0.1647745966911316,0.16161420941352844,-0.5316723585128784,,,,,,
1764808611.096978,,,,,,,0.02625858783721924,-0.04811716079711914,-0.018720373511314392,-0.03187784552574158,0.2867140471935272,0.539959192276001
1764808611.102497,-0.24622429307252167,0.11086743586063384,0.29372809478640555,-0.18404461443424225,0.1667783260345459,-0.5221152305603027,,,,,,
1764808611.107008,,,,,,,0.03975731134414673,-0.027065038681030273,-0.02130824327468872,0.01021451223641634,0.2625645101070404,0.5458674430847168
1764808611.11255,-0.039050153884291644,0.2133767932206392,0.22859598966240882,-0.18500681221485138,0.1588732749223709,-0.5035484433174133,,,,,,
1764808611.117038,,,,,,,0.04923635721206665,-0.017802655696868896,-0.017974257469177246,0.043365806341171265,0.22727948427200317,0.5523727536201477
1764808611.122602,0.06167787301689386,0.2779430811554193,0.20176877301335333,-0.18115448951721191,0.14532212913036346,-0.4756523072719574,,,,,,
1764808611.127068,,,,,,,0.05001997947692871,-0.012939155101776123,-0.011955678462982178,0.063486747443676,0.20531879365444183,0.5494221448898315
1764808611.132654,0.08640227216780186,0.3076940762966871,0.15529928278326988,-0.17198975384235382,0.1307802051305771,-0.458318829536438,,,,,,
1764808611.137098,,,,,,,0.042327702045440674,-0.01341712474822998,-0.0031453371047973633,0.06699199974536896,0.19771866500377655,0.5406635403633118
1764808611.142707,0.028489596903324126,0.27932255281507967,0.12249006911516189,-0.16206248104572296,0.11723246425390244,-0.44744357466697693,,,,,,
1764808611.147128,,,,,,,0.03440815210342407,-0.01134517788887024,-5.030632019042969e-05,0.06084984540939331,0.1920085847377777,0.5318559408187866
1764808611.152759,-0.02204319724291563,0.24699673874974248,0.11560673934221267,-0.15379495918750763,0.10431080311536789,-0.4434933066368103,,,,,,
1764808611.157158,,,,,,,0.027675330638885498,-0.011786580085754395,0.0003935694694519043,0.04676678404211998,0.18465586006641388,0.5225425958633423
1764808611.162812,-0.06824117705523967,0.17428981445729733,0.08367430850863457,-0.15145480632781982,0.09696324169635773,-0.4408634305000305,,,,,,
1764808611.167188,,,,,,,0.02333855628967285,-0.008856922388076782,0.0007919669151306152,0.03637072443962097,0.18082118034362793,0.5126626491546631
1764808611.172864,-0.08324030100554228,0.09858078573942183,0.06520811123596504,-0.1548340916633606,0.09464043378829956,-0.439973920583725,,,,,,
1764808611.177218,,,,,,,0.0175321102142334,-0.008476197719573975,0.0011734813451766968,0.022611234337091446,0.17700938880443573,0.5062170028686523
1764808611.182916,-0.07276274613291024,0.022224106767773626,0.03887538183927536,-0.16678279638290405,0.10344623029232025,-0.4408893585205078,,,,,,
1764808611.187248,,,,,,,0.013406872749328613,-0.00826030969619751,0.000756189227104187,0.008334551937878132,0.17741738259792328,0.4990413188934326
1764808611.192969,-0.04011836763769388,0.029503742381930348,0.011788619204889982,-0.18411146104335785,0.11174596846103668,-0.4375612139701843,,,,,,
1764808611.197279,,,,,,,0.01253122091293335,-0.004463881254196167,-0.0031185150146484375,-0.007211384363472462,0.1792280673980713,0.49122121930122375
1764808611.203021,0.015558511398732662,0.07232640054225921,-0.010150825402606279,-0.1957973688840866,0.10882341116666794,-0.4355403184890747,,,,,,
1764808611.207309,,,,,,,0.01505202054977417,-0.0008101165294647217,-0.007074534893035889,-0.02016337588429451,0.17429563403129578,0.48648586869239807
1764808611.213074,0.10009294386804103,0.09896890827417373,-0.0317524528904818,-0.20054419338703156,0.09527777135372162,-0.4282056987285614,,,,,,
1764808611.217339,,,,,,,0.020657598972320557,0.00261649489402771,-0.0051749348640441895,-0.03256971016526222,0.16146957874298096,0.48516732454299927
1764808611.223126,0.1532958340063691,0.10970306825637817,-0.05533438574168831,-0.19902700185775757,0.07474387437105179,-0.4170379042625427,,,,,,
1764808611.227369,,,,,,,0.023591816425323486,0.0030789971351623535,-0.0021167397499084473,-0.04736936464905739,0.13647261261940002,0.4780944287776947
1764808611.233178,0.16704086624234915,0.10240998863875865,-0.060565856654383236,-0.19591297209262848,0.05015011876821518,-0.4070361256599426,,,,,,
1764808611.237399,,,,,,,0.01922738552093506,0.0017200708389282227,0.005592420697212219,-0.07490059733390808,0.12074531614780426,0.47107353806495667
1764808611.243231,0.12895809608548878,0.08025427093207836,-0.10315759213566779,-0.19068358838558197,0.029107147827744484,-0.3983451724052429,,,,,,
1764808611.247429,,,,,,,0.011048078536987305,-0.001249849796295166,0.01394951343536377,-0.10204105824232101,0.12293390184640884,0.46425139904022217
1764808611.253283,0.08053250335156917,0.06596621786057949,-0.13728899431824684,-0.18470878899097443,0.020441489294171333,-0.3985896408557892,,,,,,
1764808611.257459,,,,,,,0.002551138401031494,-0.0028766095638275146,0.02086295187473297,-0.13078588247299194,0.1297105848789215,0.4623759984970093
1764808611.263335,0.019300328275561333,0.05251286204755306,-0.15901680546905844,-0.17799851298332214,0.02453182265162468,-0.401182621717453,,,,,,
1764808611.267489,,,,,,,-0.0007416605949401855,0.00029522180557250977,0.024022266268730164,-0.1488674432039261,0.13688726723194122,0.462878942489624
1764808611.273388,-0.05330050529390573,0.04273088822364807,-0.18322423154115675,-0.17674656212329865,0.03584546595811844,-0.40741708874702454,,,,,,
1764808611.277519,,,,,,,-0.0007857680320739746,0.001819223165512085,0.022056400775909424,-0.1588793247938156,0.14285434782505035,0.4673652946949005
1764808611.28344,-0.09558014261871575,0.02740355523228645,-0.1621650768995285,-0.18284142017364502,0.044517334550619125,-0.4111446142196655,,,,,,
1764808611.287549,,,,,,,0.001060187816619873,0.002780437469482422,0.015644848346710205,-0.15720507502555847,0.15423829853534698,0.46856895089149475
1764808611.293493,-0.0737757225677371,0.03173544695675373,-0.09590133739709854,-0.19854260981082916,0.0406445674598217,-0.41632792353630066,,,,,,
1764808611.297579,,,,,,,0.008342981338500977,0.002398937940597534,0.005168899893760681,-0.16173724830150604,0.14859771728515625,0.47037166357040405
1764808611.303545,-0.026937691286206242,0.028262217888236043,-0.07434537568185479,-0.2120610624551773,0.02382250875234604,-0.4185936450958252,,,,,,
1764808611.30761,,,,,,,0.01780688762664795,0.0011007189750671387,0.0023157447576522827,-0.15898394584655762,0.12418638169765472,0.4678455889225006
1764808611.313597,0.026110592812299726,-0.027972879552841185,-0.0991232951182872,-0.2223142385482788,0.002607768401503563,-0.4165470004081726,,,,,,
1764808611.31764,,,,,,,0.018373966217041016,-0.0037887096405029297,0.003322422504425049,-0.16390307247638702,0.0985526591539383,0.46371370553970337
1764808611.32365,0.07012538336664438,-0.06527531298696994,-0.14715681979469955,-0.2260761559009552,-0.016149980947375298,-0.4131115972995758,,,,,,
1764808611.32767,,,,,,,0.00818854570388794,-0.005714148283004761,0.012633144855499268,-0.16887664794921875,0.09339465200901031,0.4654946029186249
1764808611.333702,0.06036766720116138,-0.08929682456552981,-0.17188457994647324,-0.22549478709697723,-0.03197901323437691,-0.4071967303752899,,,,,,
1764808611.3377,,,,,,,-0.0064321160316467285,-0.005535304546356201,0.020055949687957764,-0.1832398772239685,0.097602978348732,0.47106248140335083
1764808611.343754,0.016059738919138908,-0.1139893672734499,-0.19474398894309997,-0.21952436864376068,-0.04092109203338623,-0.4114134907722473,,,,,,
1764808611.34773,,,,,,,-0.016625583171844482,-0.00839078426361084,0.02497231960296631,-0.20253203809261322,0.104170061647892,0.47660765051841736
1764808611.353807,-0.027226152838766574,-0.12477905683517455,-0.20459084469676017,-0.21160680055618286,-0.045764848589897156,-0.4165395498275757,,,,,,
1764808611.35776,,,,,,,-0.019322693347930908,-0.010815411806106567,0.023182809352874756,-0.2183762490749359,0.11341363191604614,0.48068946599960327
1764808611.363859,-0.06720569652765988,-0.1500567059546709,-0.16886486679911614,-0.21125774085521698,-0.04475416988134384,-0.4259248673915863,,,,,,
1764808611.36779,,,,,,,-0.01862388849258423,-0.008464932441711426,0.02067340910434723,-0.22402067482471466,0.1261315643787384,0.482131689786911
1764808611.373912,-0.059277826137840745,-0.1457733295470476,-0.15385785180330275,-0.21574436128139496,-0.041477419435977936,-0.4305497109889984,,,,,,
1764808611.37782,,,,,,,-0.015249669551849365,0.004525095224380493,0.016174927353858948,-0.21128730475902557,0.1383482813835144,0.4806043803691864
1764808611.383964,-0.0032248072654008863,-0.07563245635032653,-0.1407761788468808,-0.2185710370540619,-0.03324238955974579,-0.429159015417099,,,,,,
1764808611.38785,,,,,,,-0.008262455463409424,0.02171015739440918,0.009818747639656067,-0.1829969882965088,0.14062875509262085,0.4837810695171356
1764808611.394016,0.019338906720280647,0.011968670213222503,-0.19083353750109672,-0.21050193905830383,-0.028036709874868393,-0.41944193840026855,,,,,,
1764808611.39788,,,,,,,0.0005868673324584961,0.032320111989974976,0.004584193229675293,-0.15127421915531158,0.1315564215183258,0.47951680421829224
1764808611.404069,0.057821197588741775,0.05973287642896175,-0.22218962975144385,-0.20061026513576508,-0.0200498104095459,-0.40577706694602966,,,,,,
1764808611.40791,,,,,,,0.005126357078552246,0.03709343075752258,0.0025080591440200806,-0.11746535450220108,0.1231837049126625,0.4743514060974121
1764808611.414121,0.10073971733897924,0.07387304546236992,-0.221485792331025,-0.19309882819652557,-0.01848280429840088,-0.38921141624450684,,,,,,
1764808611.417941,,,,,,,0.0033016204833984375,0.03611370921134949,0.0018164664506912231,-0.09036742150783539,0.11508982628583908,0.4638335108757019
1764808611.424174,0.12833791836053132,0.027708091136813162,-0.22252631435990333,-0.18869087100028992,-0.02348461002111435,-0.3743102252483368,,,,,,
1764808611.427971,,,,,,,-0.0030422210693359375,0.03776022791862488,0.0038299560546875,-0.07236434519290924,0.1082601472735405,0.44277217984199524
1764808611.434226,0.1705146798327565,-0.018799977537989614,-0.2434276480913162,-0.18484152853488922,-0.03202962875366211,-0.3644954264163971,,,,,,
1764808611.438001,,,,,,,-0.009520947933197021,0.043688565492630005,0.005707502365112305,-0.06279294937849045,0.11091239005327225,0.41966313123703003
1764808611.444278,0.20463380705565212,-0.03017418898940086,-0.3033013942956924,-0.1739204227924347,-0.04194840043783188,-0.3548223078250885,,,,,,
1764808611.448031,,,,,,,-0.01361382007598877,0.05330511927604675,0.010503530502319336,-0.053860388696193695,0.11449034512042999,0.40235570073127747
1764808611.454331,0.24591040481775997,-0.004082300877571106,-0.3693384123701602,-0.14945955574512482,-0.040833331644535065,-0.3436327874660492,,,,,,
1764808611.458061,,,,,,,-0.015499353408813477,0.061391204595565796,0.013876676559448242,-0.05428942292928696,0.10678848624229431,0.38376179337501526
1764808611.464383,0.2961068066164851,0.004339490509033203,-0.4177625437993556,-0.12514454126358032,-0.03352014347910881,-0.32896122336387634,,,,,,
1764808611.468091,,,,,,,-0.0200536847114563,0.0686129629611969,0.012736871838569641,-0.07235320657491684,0.10254739969968796,0.3568271994590759
1764808611.474435,0.32771073614805935,-0.03509820138812065,-0.44558578574843705,-0.10211405903100967,-0.02412903681397438,-0.30924931168556213,,,,,,
1764808611.478121,,,,,,,-0.02487105131149292,0.07122740149497986,0.011247411370277405,-0.07897728681564331,0.10916562378406525,0.3221725523471832
1764808611.484488,0.36772593567222356,-0.07712240264713764,-0.45323944230675695,-0.08148610591888428,-0.012457524426281452,-0.29119378328323364,,,,,,
1764808611.488151,,,,,,,-0.03236985206604004,0.0818416178226471,0.010467901825904846,-0.08795148879289627,0.12107394635677338,0.2932209074497223
1764808611.49454,0.4321960697561502,-0.09785831668376922,-0.47433008806519206,-0.062166206538677216,-0.0012315015774220228,-0.26830044388771057,,,,,,
1764808611.498181,,,,,,,-0.035599589347839355,0.09796562790870667,0.0034536197781562805,-0.06859483569860458,0.12554672360420227,0.25487273931503296
1764808611.504593,0.493764052657783,-0.06220423497855663,-0.4747639494378119,-0.04296676069498062,0.006468609906733036,-0.2403651475906372,,,,,,
1764808611.508211,,,,,,,-0.03473234176635742,0.11106157302856445,-0.0073416754603385925,-0.05063078552484512,0.13389921188354492,0.21023762226104736
1764808611.514645,0.5778039796084166,-0.016695114213228224,-0.5092016410905867,-0.012963587418198586,0.011291594244539738,-0.2058873325586319,,,,,,
1764808611.518242,,,,,,,-0.03125828504562378,0.12798738479614258,-0.011162996292114258,-0.04163462668657303,0.12216877192258835,0.16353163123130798
1764808611.524697,0.6438233889609575,-0.01911912648975849,-0.5896726965785026,0.02784307487308979,0.0160127654671669,-0.16608843207359314,,,,,,
1764808611.528272,,,,,,,-0.03058946132659912,0.13522496819496155,-0.00991976261138916,-0.023408325389027596,0.10464730113744736,0.11530963331460953
1764808611.53475,0.6985270390510558,-0.05656476778686046,-0.6154898594021797,0.07245102524757385,0.028558384627103806,-0.12321019172668457,,,,,,
1764808611.538302,,,,,,,-0.03648775815963745,0.1351984441280365,-0.004549138247966766,-0.008046412840485573,0.1066577211022377,0.06756208837032318
1764808611.544802,0.6943304641440511,-0.12167992177605629,-0.6276246799625456,0.1121923178434372,0.05779543146491051,-0.07942160964012146,,,,,,
1764808611.548332,,,,,,,-0.047518908977508545,0.13945525884628296,-0.0010844320058822632,0.01609371043741703,0.120541051030159,0.015302612446248531
1764808611.554854,0.6400412400737404,-0.14449205756485461,-0.6279905176002532,0.14467115700244904,0.10017404705286026,-0.044972822070121765,,,,,,
1764808611.558362,,,,,,,-0.05478310585021973,0.13937321305274963,-0.006037287414073944,0.041686154901981354,0.13329599797725677,-0.03607668727636337
1764808611.564907,0.5982470481783151,-0.1863859104424715,-0.6405985816955566,0.16746829450130463,0.15182629227638245,-0.014764322899281979,,,,,,
1764808611.568392,,,,,,,-0.054692208766937256,0.13982540369033813,-0.011405467987060547,0.07320745289325714,0.14309483766555786,-0.08720778673887253
1764808611.574959,0.5541074622005224,-0.23771277757585046,-0.643537630822137,0.18637540936470032,0.20768903195858002,0.011231857351958752,,,,,,
1764808611.578422,,,,,,,-0.05075085163116455,0.14027026295661926,-0.01969391107559204,0.10933376848697662,0.1421898901462555,-0.13031822443008423
1764808611.585012,0.5643082459583878,-0.2885509844094515,-0.6542296321630477,0.20063453912734985,0.271375447511673,0.04196472465991974,,,,,,
1764808611.588452,,,,,,,-0.0488162636756897,0.1408790647983551,-0.023827731609344482,0.14667347073554993,0.13685691356658936,-0.16820096969604492
1764808611.595064,0.5877905360937118,-0.3369605027914047,-0.6375169822931289,0.22003966569900513,0.3389613926410675,0.07433544844388962,,,,,,
1764808611.598482,,,,,,,-0.05338132381439209,0.13844922184944153,-0.02149803936481476,0.20308028161525726,0.13449335098266602,-0.19665497541427612
1764808611.605116,0.6123872172117233,-0.41148821277022357,-0.6481879408460111,0.246233731508255,0.4129638373851776,0.10142025351524353,,,,,,
1764808611.608512,,,,,,,-0.06531429290771484,0.13344725966453552,-0.02248932421207428,0.28565260767936707,0.15046726167201996,-0.21484296023845673
1764808611.615169,0.6497451802253723,-0.4449719646990299,-0.6644961015682667,0.26268380880355835,0.4919508099555969,0.1239767000079155,,,,,,
1764808611.618542,,,,,,,-0.07507503032684326,0.12886139750480652,-0.02386796474456787,0.36121633648872375,0.1844731718301773,-0.23086000978946686
1764808611.625221,0.6655097355902194,-0.40412148339450354,-0.6325275765080005,0.2680671811103821,0.5790845155715942,0.1374553143978119,,,,,,
1764808611.628573,,,,,,,-0.07165586948394775,0.1266266405582428,-0.01920376718044281,0.44090336561203003,0.22690610587596893,-0.24122829735279083
1764808611.635273,0.6633569414705037,-0.2582102066814899,-0.6374620372354984,0.26618194580078125,0.6767112016677856,0.14261971414089203,,,,,,
1764808611.638603,,,,,,,-0.048407137393951416,0.12504661083221436,-0.02403712272644043,0.5236350297927856,0.24639485776424408,-0.2357906550168991
1764808611.645326,0.7029419328838586,-0.07538754167854786,-0.6602244886636733,0.26616349816322327,0.7696423530578613,0.14985862374305725,,,,,,
1764808611.648633,,,,,,,-0.016887307167053223,0.1251380443572998,-0.03412114828824997,0.6166784167289734,0.23597045242786407,-0.2179863005876541
1764808611.655378,0.7574377854421734,0.044810617107152936,-0.6680734485983848,0.2659619152545929,0.8406872153282166,0.1576899141073227,,,,,,
1764808611.658663,,,,,,,0.005271017551422119,0.12641096115112305,-0.03976874798536301,0.7121359705924988,0.21637757122516632,-0.20357006788253784
1764808611.665431,0.8480249420791864,0.06782967364490032,-0.6007517244756222,0.2675005793571472,0.8829870820045471,0.17551292479038239,,,,,,
1764808611.668693,,,,,,,0.012361884117126465,0.12449395656585693,-0.03476779907941818,0.8084424138069153,0.20569829642772675,-0.18686893582344055
1764808611.675483,0.9251078894987702,0.035738837379217146,-0.5432569092970341,0.2728878855705261,0.9037184715270996,0.19214624166488647,,,,,,
1764808611.678723,,,,,,,0.0037463903427124023,0.11609184741973877,-0.026913046836853027,0.8885716199874878,0.20428629219532013,-0.17591428756713867
1764808611.685535,0.9328110112220048,0.0044458734929561615,-0.41046997563838955,0.2824964225292206,0.9051452279090881,0.20583556592464447,,,,,,
1764808611.688753,,,,,,,-0.008291959762573242,0.10122719407081604,-0.021999232470989227,0.9448066353797913,0.20708046853542328,-0.17577506601810455
1764808611.695588,0.9324655587852001,-0.04997603704631328,-0.2970809123456478,0.2891806960105896,0.8937458395957947,0.20922231674194336,,,,,,
1764808611.698783,,,,,,,-0.01920318603515625,0.08417147397994995,-0.03040379285812378,0.9732620120048523,0.21745269000530243,-0.1877715289592743
1764808611.70564,0.9743673027083277,-0.06823182470500469,-0.17809563648104668,0.28574469685554504,0.8566470146179199,0.21396800875663757,,,,,,
1764808611.708813,,,,,,,-0.020534873008728027,0.07676967978477478,-0.04481338709592819,0.9870756268501282,0.22789201140403748,-0.20711953938007355
1764808611.715692,1.0429925106450915,-0.058629299101233476,-0.10498831469416618,0.28640034794807434,0.8015920519828796,0.22743187844753265,,,,,,
1764808611.718843,,,,,,,-0.010885536670684814,0.07913702726364136,-0.04927927255630493,0.9669027328491211,0.22180669009685516,-0.23964844644069672
1764808611.725745,1.1095979031920433,0.05178104064166546,-0.15905775853395462,0.2984655499458313,0.7610999941825867,0.24660557508468628,,,,,,
1764808611.728873,,,,,,,0.002329885959625244,0.09647506475448608,-0.0452844500541687,0.917548418045044,0.2189890593290329,-0.28926387429237366
1764808611.735797,1.1673322992801665,0.2979255464762449,-0.1796715805608779,0.327968031167984,0.7326816916465759,0.2883910834789276,,,,,,
1764808611.738904,,,,,,,0.01646876335144043,0.11758825182914734,-0.04186566174030304,0.8404051661491394,0.2057582139968872,-0.3288283348083496
1764808611.74585,1.18843763115108,0.5903852287620306,-0.20698387731313705,0.37384483218193054,0.7112987637519836,0.34276363253593445,,,,,,
1764808611.748934,,,,,,,0.03336524963378906,0.12445792555809021,-0.04012233018875122,0.7369403839111328,0.17952927947044373,-0.385210782289505
1764808611.755902,1.1846510983496903,0.7207189971148967,-0.22469832463674247,0.42053112387657166,0.6901463270187378,0.4010130763053894,,,,,,
1764808611.758964,,,,,,,0.043974995613098145,0.13523000478744507,-0.050121061503887177,0.6308813095092773,0.13534477353096008,-0.4812108278274536
1764808611.765954,1.2086515671402216,0.6734370214581489,-0.17608027807064353,0.4577265679836273,0.6625303626060486,0.4720706343650818,,,,,,
1764808611.768994,,,,,,,0.04751831293106079,0.155400812625885,-0.06427400559186935,0.5579180121421814,0.10423558205366135,-0.5836181044578552
1764808611.776007,1.2981418684512376,0.6037345396786927,-0.0745803534815088,0.4758584201335907,0.6112085580825806,0.5543748736381531,,,,,,
1764808611.779024,,,,,,,0.051144957542419434,0.18232452869415283,-0.07602673768997192,0.4743189513683319,0.06352943181991577,-0.6999361515045166
1764808611.786059,1.366376323504746,0.5970972936213016,-0.04830726358387619,0.4857293665409088,0.5496488809585571,0.6471642851829529,,,,,,
1764808611.789054,,,,,,,0.05447530746459961,0.20383065938949585,-0.08250176161527634,0.34602445363998413,0.010211614891886711,-0.8384998440742493
1764808611.796111,1.483076995563507,0.7226081718623638,-0.1396211635928601,0.50091952085495,0.4879269301891327,0.7362331748008728,,,,,,
1764808611.799084,,,,,,,0.06118738651275635,0.21385124325752258,-0.08614152669906616,0.1473981738090515,-0.053254708647727966,-1.0040082931518555
1764808611.806164,1.6753285831689833,0.8912368918180466,-0.2509737526219338,0.5471300482749939,0.4083622395992279,0.8305561542510986,,,,,,
1764808611.809114,,,,,,,0.06984996795654297,0.22333917021751404,-0.08092241734266281,-0.11772340536117554,-0.12062816321849823,-1.1672948598861694
1764808611.816216,1.8998110000327229,0.9715198043227196,-0.36562779434919357,0.6195334196090698,0.3305356204509735,0.9275686740875244,,,,,,
1764808611.819144,,,,,,,0.07371562719345093,0.22241461277008057,-0.06936776638031006,-0.4447009861469269,-0.20531082153320312,-1.3265079259872437
1764808611.826269,2.1039269206941125,0.8635130185902118,-0.5320891436705365,0.6946604251861572,0.29494237899780273,1.0236183404922485,,,,,,
1764808611.829174,,,,,,,0.06565713882446289,0.21152031421661377,-0.06198914349079132,-0.7869733572006226,-0.2607663571834564,-1.4939945936203003
1764808611.83632,2.2459069954380393,0.6879846022486686,-0.6462567535877227,0.7522222399711609,0.29946574568748474,1.1143420934677124,,,,,,
1764808611.839205,,,,,,,0.04501909017562866,0.21852710843086243,-0.06050439178943634,-1.1127511262893677,-0.2674271762371063,-1.6657872200012207
1764808611.846373,2.3596835967436434,0.6198498081773519,-0.6791758573710918,0.7894666194915771,0.31549981236457825,1.205063819885254,,,,,,
1764808611.849235,,,,,,,0.023947834968566895,0.25399157404899597,-0.07073104381561279,-1.5025031566619873,-0.2702975273132324,-1.8709266185760498
1764808611.856426,2.5303797706231475,0.6868582285672425,-0.742718062955141,0.8300758600234985,0.31605401635169983,1.3136284351348877,,,,,,
1764808611.859265,,,,,,,0.014606237411499023,0.3127485513687134,-0.07601522654294968,-1.9246362447738647,-0.25503310561180115,-2.092026472091675
1764808611.866478,2.892336767505109,0.8254559673964976,-0.780799664068222,0.9311285614967346,0.25945553183555603,1.491736888885498,,,,,,
1764808611.869295,,,,,,,0.03342747688293457,0.3737402558326721,-0.07033061981201172,-2.3241543769836426,-0.2759897708892822,-2.2997896671295166
1764808611.87653,3.269804637251794,1.0539742156475782,-0.7687246108710766,1.0697277784347534,0.15434163808822632,1.7294796705245972,,,,,,
1764808611.879325,,,,,,,0.061169981956481934,0.4118775725364685,-0.0642278715968132,-2.5299034118652344,-0.3173883557319641,-2.5004467964172363
1764808611.886583,3.4850229666858907,1.2916910848766565,-0.8210533485233783,1.2137945890426636,0.05773373693227768,1.9686875343322754,,,,,,
1764808611.889355,,,,,,,0.08608072996139526,0.4383664131164551,-0.07231259346008301,-2.6260547637939453,-0.36557477712631226,-2.6777942180633545
1764808611.896635,3.4337042828589674,1.5225626182556151,-0.8294687101691961,1.3453155755996704,-0.017220400273799896,2.1573619842529297,,,,,,
1764808611.899385,,,,,,,0.09629952907562256,0.46308809518814087,-0.06534755975008011,-2.6713175773620605,-0.3317643702030182,-2.86934494972229
1764808611.906688,3.221429897922277,1.6238152535527943,-0.6905617592602967,1.4474581480026245,-0.04731271043419838,2.284869432449341,,,,,,
1764808611.909415,,,,,,,0.09287935495376587,0.4688793420791626,-0.05495763570070267,-2.728733777999878,-0.22075289487838745,-3.092663288116455
1764808611.91674,2.932328293892741,1.5708447108656167,-0.696898561066389,1.5244405269622803,-0.04488150775432587,2.3832571506500244,,,,,,
1764808611.919445,,,,,,,0.09441715478897095,0.479103147983551,-0.042208969593048096,-2.7254478931427,-0.07305025309324265,-3.28515887260437
1764808611.926792,2.6706723306715485,1.5381196683496237,-0.8161854502260685,1.5847889184951782,-0.03934526443481445,2.4993703365325928,,,,,,
1764808611.929475,,,,,,,0.11250782012939453,0.5199066400527954,-0.030179740861058235,-2.6293458938598633,0.05919300764799118,-3.4162325859069824
1764808611.936845,2.5530127504527567,1.630960449132323,-1.0672283225614576,1.6459182500839233,0.02121208794414997,2.630103588104248,,,,,,
1764808611.939505,,,,,,,0.1344088912010193,0.5752318501472473,-0.014149188995361328,-2.399765968322754,0.19587256014347076,-3.501753330230713
1764808611.946897,2.5720254939585923,1.8076263450711965,-1.3647709341347216,1.7217155694961548,0.15110500156879425,2.7543890476226807,,,,,,
1764808611.949536,,,,,,,0.15108025074005127,0.6067069172859192,0.013219833374023438,-2.0871288776397705,0.33688879013061523,-3.5854339599609375
1764808611.956949,2.697270414739847,2.021916161483526,-1.5044557375483214,1.7910460233688354,0.2977738082408905,2.883178949356079,,,,,,
1764808611.959566,,,,,,,0.16696441173553467,0.6169998645782471,0.049037933349609375,-1.7657960653305054,0.4787346124649048,-3.676647663116455
1764808611.967002,2.8663030393213034,2.2046283518493173,-1.435809486823529,1.8405189514160156,0.41101545095443726,3.039902925491333,,,,,,
1764808611.969596,,,,,,,0.19463825225830078,0.6318565607070923,0.08786749839782715,-1.4180002212524414,0.6460924744606018,-3.774815320968628
1764808611.977054,2.9514737238675353,2.4311072032272816,-1.4113374549984932,1.9023548364639282,0.4754173457622528,3.2167117595672607,,,,,,
1764808611.979626,,,,,,,0.23560023307800293,0.6594176888465881,0.1258528232574463,-1.1032776832580566,0.7686524391174316,-3.8668112754821777
1764808611.987106,2.8994331555068493,2.791471962481737,-1.4297541323073208,1.975201964378357,0.5190559029579163,3.3890395164489746,,,,,,
1764808611.989656,,,,,,,0.2918911576271057,0.6650221943855286,0.14655041694641113,-0.8255940675735474,0.8667446970939636,-3.9564666748046875
1764808611.997159,2.8114082505732774,3.057942632508278,-1.3810847939454018,2.0460684299468994,0.5501762628555298,3.5256738662719727,,,,,,
1764808611.999686,,,,,,,0.34085607528686523,0.6181468963623047,0.1561051607131958,-0.6035215854644775,0.9665929675102234,-4.0236639976501465
1764808612.007211,2.735793914401531,3.0900591877371073,-1.2340629256419837,2.1018247604370117,0.5576547980308533,3.628657579421997,,,,,,
1764808612.009716,,,,,,,0.36996906995773315,0.547490656375885,0.17351281642913818,-0.45481300354003906,1.0736229419708252,-4.0884480476379395
1764808612.017264,2.651038824918866,3.040123482701182,-1.062939612391591,2.146754503250122,0.548550009727478,3.7056078910827637,,,,,,
1764808612.019746,,,,,,,0.39204367995262146,0.49017584323883057,0.1944250911474228,-0.35387465357780457,1.1894954442977905,-4.161369800567627
1764808612.027316,2.49263689994514,3.035280134323239,-1.0216356882311404,2.194587469100952,0.5532413125038147,3.771210193634033,,,,,,
1764808612.029776,,,,,,,0.405997633934021,0.46287018060684204,0.20743906497955322,-0.27707865834236145,1.322587251663208,-4.229586124420166
1764808612.037368,2.320032262095809,3.157787154573202,-1.0440784061856567,2.2333977222442627,0.5689355731010437,3.8382418155670166,,,,,,
1764808612.039806,,,,,,,0.42836108803749084,0.4517019987106323,0.2145005464553833,-0.25577524304389954,1.4320112466812134,-4.278926849365234
1764808612.047421,2.0993577130824326,3.343405587774515,-1.0360814160823821,2.2647922039031982,0.5875243544578552,3.9022469520568848,,,,,,
1764808612.049837,,,,,,,0.4625382125377655,0.4261931777000427,0.2128000110387802,-0.1940804421901703,1.529030442237854,-4.307621002197266
1764808612.057473,1.9022130927383898,3.47390945199728,-1.0642641389936207,2.2896969318389893,0.5954967737197876,3.945800542831421,,,,,,
1764808612.059867,,,,,,,0.4910849630832672,0.38894933462142944,0.21965858340263367,-0.10718922317028046,1.6334295272827148,-4.319526195526123
1764808612.067525,1.7955729191839693,3.5768475561633704,-1.0902429221197962,2.3215315341949463,0.6029382944107056,3.9818365573883057,,,,,,
1764808612.069897,,,,,,,0.5099483728408813,0.37604838609695435,0.2480224072933197,0.04734908416867256,1.733686923980713,-4.33159875869751
1764808612.077578,1.7309499326258897,3.7395264278039333,-1.0848547993406652,2.3699254989624023,0.6148471832275391,4.044157981872559,,,,,,
1764808612.079927,,,,,,,0.530846118927002,0.3783944845199585,0.25432515144348145,0.25479230284690857,1.8083033561706543,-4.318219184875488
1764808612.08763,1.5646043551713227,3.9013977824538943,-0.9337705039039254,2.3957605361938477,0.6654725670814514,4.116374492645264,,,,,,
1764808612.089957,,,,,,,0.5692102909088135,0.3581775426864624,0.21588468551635742,0.545953631401062,1.861391544342041,-4.2542033195495605
1764808612.097683,1.2393553329616784,3.872492590487003,-0.633540772138536,2.370053291320801,0.7740209102630615,4.158760070800781,,,,,,
1764808612.099987,,,,,,,0.6052272319793701,0.31278955936431885,0.1606072187423706,0.7857864499092102,1.8646308183670044,-4.183590888977051
1764808612.107735,0.8090373320370912,3.619417116345465,-0.24260566418394444,2.2969045639038086,0.8987454175949097,4.14105749130249,,,,,,
1764808612.110017,,,,,,,0.6221653819084167,0.2618338465690613,0.15153932571411133,0.9382728338241577,1.897009253501892,-4.134132385253906
1764808612.117787,0.3963812445312738,3.4285032070845363,-0.1557382587224245,2.246636390686035,1.0077658891677856,4.075474739074707,,,,,,
1764808612.120047,,,,,,,0.6151057481765747,0.20891374349594116,0.2150772660970688,1.0595399141311646,2.0051701068878174,-4.079212665557861
1764808612.12784,0.1375876850038767,3.635575347203016,-0.44144320605099197,2.253349542617798,1.1006821393966675,4.00541353225708,,,,,,
1764808612.130077,,,,,,,0.6018891930580139,0.203621506690979,0.27923572063446045,1.1972132921218872,2.1218650341033936,-4.05547571182251
1764808612.137892,0.12152853060662745,4.140530363699794,-0.731327631021291,2.282416820526123,1.1605854034423828,3.9832406044006348,,,,,,
1764808612.140107,,,,,,,0.612817108631134,0.22331774234771729,0.2756052017211914,1.3694969415664673,2.1396217346191406,-4.030516624450684
1764808612.147944,0.1004518403083086,4.396764886394143,-0.7903934218436479,2.2804601192474365,1.196851134300232,3.9980576038360596,,,,,,
1764808612.150137,,,,,,,0.6394845247268677,0.20056867599487305,0.25063371658325195,1.4962034225463867,2.1141974925994873,-4.010381698608398
1764808612.157997,-0.004670914420485496,4.193293401116133,-0.7213019115693867,2.2424163818359375,1.2252534627914429,4.004308223724365,,,,,,
1764808612.160168,,,,,,,0.6517764925956726,0.16375869512557983,0.25802159309387207,1.5244355201721191,2.115602970123291,-4.025546550750732
1764808612.168049,-0.050201662495732303,4.003532461282611,-0.8170147406570613,2.192873954772949,1.2438465356826782,3.9882473945617676,,,,,,
1764808612.170198,,,,,,,0.6648057103157043,0.1576027274131775,0.3006693124771118,1.44463050365448,2.11913800239563,-4.070384979248047
1764808612.178102,0.11602467249333857,4.2072094060048455,-1.065504640574008,2.1715402603149414,1.2370514869689941,3.995954751968384,,,,,,
1764808612.180228,,,,,,,0.7012350559234619,0.17395615577697754,0.33201801776885986,1.3884590864181519,2.0807602405548096,-4.0681986808776855
1764808612.188154,0.28493454747796054,4.547046925537288,-1.1599334212005137,2.161512613296509,1.1790021657943726,4.057364463806152,,,,,,
1764808612.190258,,,,,,,0.732318639755249,0.14226651191711426,0.30264079570770264,1.3049832582473755,1.9966298341751099,-4.045398712158203
1764808612.198206,0.243676069894433,4.662486783879995,-0.9493389521747827,2.1446471214294434,1.0969001054763794,4.131314277648926,,,,,,
1764808612.200288,,,,,,,0.7153686285018921,0.09299284219741821,0.2822084426879883,1.2306445837020874,1.9858416318893433,-4.0344719886779785
1764808612.208259,0.0018126023799180982,4.423291366530955,-0.6148936470746994,2.1169991493225098,1.0242873430252075,4.162534236907959,,,,,,
1764808612.210318,,,,,,,0.6703081130981445,0.03704339265823364,0.24658328294754028,1.1853671073913574,1.9655581712722778,-3.9916563034057617
1764808612.218311,-0.43293958159983154,3.861681565876305,-0.36926468954682345,2.061358690261841,0.9497532248497009,4.125638961791992,,,,,,
1764808612.220348,,,,,,,0.638547956943512,-0.016157567501068115,0.20348793268203735,1.121338129043579,1.9318623542785645,-3.9734816551208496
1764808612.228363,-0.8761486282795667,3.3290032606735824,-0.14671316768042741,1.9799939393997192,0.8254203796386719,4.043316841125488,,,,,,
1764808612.230378,,,,,,,0.6183638572692871,-0.04197567701339722,0.21876007318496704,1.0178650617599487,1.9476202726364136,-3.984215021133423
1764808612.238416,-1.100090654656291,3.204209590791166,-0.3361760013502091,1.9025108814239502,0.6998968124389648,3.9566988945007324,,,,,,
1764808612.240408,,,,,,,0.6241278648376465,-0.030489981174468994,0.25659269094467163,0.977138340473175,1.9337419271469116,-3.959218740463257
1764808612.248468,-1.1513847885638475,3.509198499782383,-0.8900023815870285,1.8563581705093384,0.6173773407936096,3.899493932723999,,,,,,
1764808612.250438,,,,,,,0.6532264947891235,-0.0421634316444397,0.2505321502685547,1.0499379634857178,1.8445631265640259,-3.8814117908477783
1764808612.25852,-1.2450029834598302,3.7608269899860023,-1.215655892944336,1.837204098701477,0.5888279676437378,3.858339309692383,,,,,,
1764808612.260469,,,,,,,0.6471867561340332,-0.09309661388397217,0.26365238428115845,1.0014688968658447,1.7651433944702148,-3.8557655811309814
1764808612.268573,-1.4166852457672356,3.829135094797611,-1.3797849633932113,1.8468180894851685,0.6064529418945312,3.809626817703247,,,,,,
1764808612.270499,,,,,,,0.599675178527832,-0.11373239755630493,0.31582820415496826,0.8606979846954346,1.790256381034851,-3.865546226501465
1764808612.278625,-1.5084762252360582,3.850174083434045,-1.3093407233357428,1.8681292533874512,0.6055930256843567,3.7610764503479004,,,,,,
1764808612.280529,,,,,,,0.5656588077545166,-0.13086605072021484,0.31199324131011963,0.8051926493644714,1.813264012336731,-3.775242805480957
1764808612.288678,-1.564517845931649,3.7949820653051134,-1.0805413200557232,1.8711471557617188,0.601992666721344,3.7157793045043945,,,,,,
1764808612.290559,,,,,,,0.554164707660675,-0.1232825517654419,0.29131853580474854,0.7541304230690002,1.7878031730651855,-3.6977667808532715
1764808612.29873,-1.7147469858437776,3.55832931817621,-0.9169090932130813,1.8439929485321045,0.616762101650238,3.6668832302093506,,,,,,
1764808612.300589,,,,,,,0.5479918718338013,-0.11127853393554688,0.23407721519470215,0.7393685579299927,1.748572587966919,-3.6348509788513184
1764808612.308782,-1.9709499443560838,3.170048085731268,-0.6419827295303344,1.782768726348877,0.6183744072914124,3.6103553771972656,,,,,,
1764808612.310619,,,,,,,0.5445885062217712,-0.14673054218292236,0.19187894463539124,0.7081411480903625,1.7279720306396484,-3.5771164894104004
1764808612.318835,-2.1919611779779196,2.9054934784591198,-0.38339725979566575,1.7065151929855347,0.6143139004707336,3.543792963027954,,,,,,
1764808612.320649,,,,,,,0.5398557186126709,-0.14098989963531494,0.20677852630615234,0.7511711716651917,1.7497398853302002,-3.5100347995758057
1764808612.328887,-2.3906173719286916,2.9008400996953245,-0.38882746815085406,1.6445505619049072,0.6223719716072083,3.4679017066955566,,,,,,
1764808612.330679,,,,,,,0.5404058694839478,-0.12548083066940308,0.19069036841392517,0.9655976891517639,1.7103650569915771,-3.41593074798584
1764808612.338939,-2.5603409013837575,3.0230098508149386,-0.527736684082076,1.6167434453964233,0.6373397707939148,3.38664174079895,,,,,,
1764808612.340709,,,,,,,0.5400596857070923,-0.15286558866500854,0.20538300275802612,1.1901756525039673,1.6242914199829102,-3.3738629817962646
1764808612.348992,-2.732795317107439,3.1410873641848562,-0.9026631257176398,1.6149829626083374,0.6997445225715637,3.2781388759613037,,,,,,
1764808612.350739,,,,,,,0.5128571391105652,-0.16232413053512573,0.25711381435394287,1.3686331510543823,1.5929439067840576,-3.3717217445373535
1764808612.359044,-2.888226701837778,3.21256620798707,-1.3386578571043908,1.639098882675171,0.7785906195640564,3.1552703380584717,,,,,,
1764808612.360769,,,,,,,0.48912304639816284,-0.19262146949768066,0.2675013840198517,1.5205638408660889,1.5275629758834839,-3.3294827938079834
1764808612.369096,-2.9459622669696808,3.1368606864005324,-1.4695054201982916,1.6503679752349854,0.8803351521492004,3.0239417552948,,,,,,
1764808612.3708,,,,,,,0.4799930453300476,-0.25708770751953125,0.2345859408378601,1.5421631336212158,1.4524242877960205,-3.2295241355895996
1764808612.379149,-2.902202620220184,2.847817534559965,-1.16307347279191,1.6309887170791626,0.9394919276237488,2.9061992168426514,,,,,,
1764808612.38083,,,,,,,0.4631166458129883,-0.28820300102233887,0.20833441615104675,1.3310307264328003,1.378859519958496,-3.2195966243743896
1764808612.389201,-2.5705314560085535,2.4858698900282383,-0.6984976668260992,1.5879526138305664,0.9121307134628296,2.820915699005127,,,,,,
1764808612.39086,,,,,,,0.4468197226524353,-0.2726173996925354,0.19446992874145508,0.9987415075302124,1.310499668121338,-3.2618408203125
1764808612.399254,-2.008694860860705,2.210492859968543,-0.4225662177540362,1.5238796472549438,0.8307040333747864,2.7423653602600098,,,,,,
1764808612.40089,,,,,,,0.4376680254936218,-0.23231583833694458,0.16356271505355835,0.6690240502357483,1.2928309440612793,-3.17653489112854
1764808612.409306,-1.4588602536737918,2.1397464220941065,-0.2887259025849402,1.4418991804122925,0.7266730666160583,2.6777188777923584,,,,,,
1764808612.41092,,,,,,,0.4309213161468506,-0.19028663635253906,0.10777956247329712,0.4442146122455597,1.2606759071350098,-3.048626661300659
1764808612.419358,-0.8667319806367159,2.105513313102722,-0.15126622787490487,1.3333183526992798,0.6294758915901184,2.628490924835205,,,,,,
1764808612.42095,,,,,,,0.41960346698760986,-0.1627991497516632,0.0738474428653717,0.19713982939720154,1.183904767036438,-2.991750717163086
1764808612.429411,-0.530963317978382,1.9362609082907438,-0.1367128018654883,1.2189908027648926,0.5020882487297058,2.5551540851593018,,,,,,
1764808612.43098,,,,,,,0.4042826294898987,-0.12971791625022888,0.053379207849502563,-0.0035269197542220354,1.121901273727417,-2.963111639022827
1764808612.439463,-0.5229927774906158,1.718116170015931,-0.03459668160676956,1.1133924722671509,0.34668105840682983,2.4943745136260986,,,,,,
1764808612.44101,,,,,,,0.38732045888900757,-0.15389788150787354,0.06573948264122009,-0.11309868842363358,1.0869888067245483,-2.8376569747924805
1764808612.449515,-0.13611118271052836,1.795820171943307,-0.11947510520815849,1.039769172668457,0.21555587649345398,2.4733221530914307,,,,,,
1764808612.45104,,,,,,,0.3683174252510071,-0.18526601791381836,0.09631699323654175,-0.08109281957149506,1.0813807249069214,-2.660217523574829
1764808612.459568,-0.43710488458573815,2.013697199192643,-0.320980551110208,1.0055664777755737,0.08227559179067612,2.4059321880340576,,,,,,
1764808612.46107,,,,,,,0.32751667499542236,-0.18346819281578064,0.11259371042251587,0.051945384591817856,1.053828477859497,-2.605872631072998
1764808612.46962,-1.415823075979948,2.0533219380944967,-0.4220347412258386,0.9794349670410156,0.019126618281006813,2.2741403579711914,,,,,,
1764808612.471101,,,,,,,0.29582953453063965,-0.17708241939544678,0.09677141904830933,0.0468108169734478,1.0311369895935059,-2.5322275161743164
1764808612.479672,-2.0834569641172886,1.9728063858777283,-0.6082300975322723,0.9533410668373108,0.06091827526688576,2.1394095420837402,,,,,,
1764808612.481131,,,,,,,0.2974966764450073,-0.1272485852241516,0.05946844816207886,0.026222987100481987,1.0150901079177856,-2.3996307849884033
1764808612.489725,-2.265517412576079,1.8275223011523485,-0.43816549955457446,0.8986116051673889,0.168009415268898,2.022355556488037,,,,,,
1764808612.491161,,,,,,,0.30987823009490967,-0.10135465860366821,0.023324161767959595,0.08495716750621796,0.9512499570846558,-2.2752606868743896
1764808612.499777,-2.164007003125548,1.46233231369853,-0.1413534672781825,0.8205947875976562,0.2604821026325226,1.904209852218628,,,,,,
1764808612.501191,,,,,,,0.3048323392868042,-0.10175567865371704,0.015635639429092407,0.09950815141201019,0.8781546950340271,-2.1911985874176025
1764808612.50983,-1.8012696695208548,1.190325052332878,0.027270868763327596,0.7474405765533447,0.27979183197021484,1.7839690446853638,,,,,,
1764808612.511221,,,,,,,0.28943324089050293,-0.1301252841949463,0.02298074960708618,0.04418293014168739,0.823083758354187,-2.0790181159973145
1764808612.519882,-1.5037182170540093,0.9132032244324684,-0.04451543355286121,0.6555388569831848,0.25682446360588074,1.6420459747314453,,,,,,
1764808612.521251,,,,,,,0.278606653213501,-0.1547677218914032,0.03250086307525635,-0.1364731341600418,0.8114084601402283,-1.9804173707962036
1764808612.529934,-1.075442827872932,1.1079337693721056,0.09292202932536602,0.5846822261810303,0.19330473244190216,1.539133906364441,,,,,,
1764808612.531281,,,,,,,0.2727823853492737,-0.1520434021949768,0.0009576678276062012,-0.20760701596736908,0.7699131965637207,-1.850740671157837
1764808612.539987,-0.9788485397756099,1.0582242743074894,0.19692571689635513,0.4918540120124817,0.13431385159492493,1.4321826696395874,,,,,,
1764808612.541311,,,,,,,0.2586188316345215,-0.18397118151187897,-0.03005516529083252,-0.3349473774433136,0.6388539671897888,-1.789483904838562
1764808612.550039,-0.7066407874017954,0.8789303679525852,0.09176029206961393,0.44207850098609924,0.08579203486442566,1.416269302368164,,,,,,
1764808612.551341,,,,,,,0.22847527265548706,-0.16840849816799164,-0.013614952564239502,-0.4515800476074219,0.5907226800918579,-1.6108596324920654
1764808612.560091,0.05036152923256158,1.4188263494491575,-0.01107522850483656,0.3971744179725647,0.014237692579627037,1.4445693492889404,,,,,,
1764808612.561371,,,,,,,0.1959475874900818,-0.13275262713432312,-0.039334893226623535,-0.38616907596588135,0.5313230156898499,-1.5838311910629272
1764808612.570144,-0.3796642107471824,1.3240659987807273,0.2565130473747849,0.334672749042511,-0.03685072064399719,1.4086017608642578,,,,,,
1764808612.571402,,,,,,,0.16301411390304565,-0.13494284451007843,-0.045878469944000244,-0.36782342195510864,0.4570021629333496,-1.5403039455413818
1764808612.580196,-0.9600392098873853,0.9561492167115211,0.17897504966408012,0.2986803948879242,-0.03958951681852341,1.3205208778381348,,,,,,
1764808612.581432,,,,,,,0.17671042680740356,-0.15186572074890137,-0.02904096245765686,-0.4682259261608124,0.4082878828048706,-1.3888617753982544
1764808612.590248,-1.1059408419892192,1.1315116288363933,0.1351096044525504,0.27397966384887695,-0.05300198122859001,1.2239325046539307,,,,,,
1764808612.591462,,,,,,,0.21528369188308716,-0.13449618220329285,-0.010881304740905762,-0.5503795146942139,0.3699205219745636,-1.300498127937317
1764808612.600301,-1.0775886077299714,1.5708640000879763,0.2801110728442669,0.23304182291030884,-0.03259577602148056,1.1490508317947388,,,,,,
1764808612.601492,,,,,,,0.2297738790512085,-0.11489199101924896,-0.051364392042160034,-0.5001714825630188,0.2791930139064789,-1.2173664569854736
1764808612.610353,-1.2124109196737407,1.367886435806751,0.45821956880688663,0.1581326425075531,0.003974587190896273,1.070376992225647,,,,,,
1764808612.611522,,,,,,,0.2223256230354309,-0.1532602161169052,-0.0972679853439331,-0.46171221137046814,0.20054800808429718,-1.0819371938705444
1764808612.620405,-1.5380848892971872,0.9491302778601646,0.7672866870224475,0.07344039529561996,-0.009379833936691284,0.9392897486686707,,,,,,
1764808612.621552,,,,,,,0.21981072425842285,-0.20334458351135254,-0.11636018753051758,-0.4606861174106598,0.13646702468395233,-0.9554095268249512
1764808612.630458,-1.710184500233829,0.9175374542444944,0.7716825838938355,0.007181765511631966,-0.01693025231361389,0.8281407952308655,,,,,,
1764808612.631582,,,,,,,0.22683000564575195,-0.24858224391937256,-0.1336221694946289,-0.40943264961242676,0.040029432624578476,-0.767379641532898
1764808612.64051,-1.468387960475683,1.0373287857949733,0.7413222246825695,-0.05586351081728935,-0.05730270966887474,0.7110498547554016,,,,,,
1764808612.641612,,,,,,,0.22218763828277588,-0.25557661056518555,-0.1639845371246338,-0.2923252284526825,-0.05557405576109886,-0.6957637667655945
1764808612.650563,-1.82774325042665,0.7075678391188382,1.0037149777457117,-0.12432283163070679,-0.12646964192390442,0.572426974773407,,,,,,
1764808612.651642,,,,,,,0.1957240104675293,-0.2667591869831085,-0.1670657992362976,-0.2512875199317932,-0.12699177861213684,-0.5203666090965271
1764808612.660615,-1.8825678965479133,0.6148755268961191,0.9544120176553725,-0.17941218614578247,-0.15302535891532898,0.44313371181488037,,,,,,
1764808612.661672,,,,,,,0.20348083972930908,-0.3234456777572632,-0.15836644172668457,-0.27529245615005493,-0.19904173910617828,-0.3034968674182892
1764808612.670667,-2.1570240123704076,1.037532783934474,0.9815464005574583,-0.24323786795139313,-0.12384489923715591,0.26206260919570923,,,,,,
1764808612.671702,,,,,,,0.2261984944343567,-0.3708826005458832,-0.16106122732162476,-0.31022220849990845,-0.2973312735557556,-0.11804312467575073
1764808612.68072,-2.398632628341019,1.3337550336241721,0.9619543958589434,-0.30494195222854614,-0.0899183601140976,0.058250077068805695,,,,,,
1764808612.681733,,,,,,,0.25489598512649536,-0.3589801788330078,-0.1785426139831543,-0.306820809841156,-0.4017021656036377,0.05645251274108887
1764808612.690772,-2.470489365544915,1.351789872008562,0.9674433486640452,-0.36068016290664673,-0.09240276366472244,-0.15122385323047638,,,,,,
1764808612.691763,,,,,,,0.2825860381126404,-0.3504195213317871,-0.17539280652999878,-0.2965930104255676,-0.5212154984474182,0.24748098850250244
1764808612.700824,-2.378934240658581,1.4218383907467127,0.9617875148594379,-0.42371663451194763,-0.11407636851072311,-0.35952243208885193,,,,,,
1764808612.701793,,,,,,,0.3005751371383667,-0.36177313327789307,-0.17188778519630432,-0.30888962745666504,-0.6260878443717957,0.4521861970424652
1764808612.710877,-2.2846929454281923,1.6554975090175865,1.030891446223855,-0.4926290214061737,-0.1479940116405487,-0.5633012652397156,,,,,,
1764808612.711823,,,,,,,0.32874399423599243,-0.3757515549659729,-0.16852325201034546,-0.3332228660583496,-0.7301575541496277,0.667410671710968
1764808612.720929,-2.2522081414088606,1.825539018380642,1.0345303872480989,-0.5540444254875183,-0.17220187187194824,-0.7612612247467041,,,,,,
1764808612.721853,,,,,,,0.35351765155792236,-0.3795144557952881,-0.16703087091445923,-0.3651943802833557,-0.8458968997001648,0.8758949041366577
1764808612.730981,-2.2567741341501475,1.9113193592578173,1.0177870499789714,-0.6178918480873108,-0.19855491816997528,-0.9579737782478333,,,,,,
1764808612.731883,,,,,,,0.36934202909469604,-0.37859809398651123,-0.1651255488395691,-0.38031986355781555,-0.9580466151237488,1.091314673423767
1764808612.741034,-2.365278640271723,1.9644640894681213,1.011409623901546,-0.6845382452011108,-0.23250223696231842,-1.1694351434707642,,,,,,
1764808612.741913,,,,,,,0.3788541555404663,-0.3816941976547241,-0.15554678440093994,-0.35508403182029724,-1.0581053495407104,1.3122007846832275
1764808612.751086,-2.4634108054608106,2.081156285959482,0.8887494589164853,-0.7378443479537964,-0.2864653766155243,-1.3973020315170288,,,,,,
1764808612.751943,,,,,,,0.3949474096298218,-0.3815161883831024,-0.1296449601650238,-0.29848867654800415,-1.1711221933364868,1.5070197582244873
1764808612.761138,-2.586419930014014,2.1868431043118237,0.5886798861488699,-0.7846992015838623,-0.3308493494987488,-1.6383851766586304,,,,,,
1764808612.761973,,,,,,,0.41293495893478394,-0.3791571855545044,-0.10715976357460022,-0.22846192121505737,-1.2963179349899292,1.692571759223938
1764808612.771191,-2.7294802012100816,2.2458634485572575,0.34065409661233426,-0.8486683964729309,-0.36489757895469666,-1.880473017692566,,,,,,
1764808612.772003,,,,,,,0.4304296374320984,-0.3806305527687073,-0.09716415405273438,-0.185087189078331,-1.416535496711731,1.879243016242981
1764808612.781243,-2.7594527301475402,2.1567145080298182,0.2693672682508826,-0.9317574501037598,-0.3958805501461029,-2.11277174949646,,,,,,
1764808612.782034,,,,,,,0.43899214267730713,-0.371036171913147,-0.08405709266662598,-0.1620101034641266,-1.5211271047592163,2.061683177947998
1764808612.791296,-2.7705004861235616,1.9515952555447815,0.3025418081000447,-1.0345277786254883,-0.39747190475463867,-2.327179431915283,,,,,,
1764808612.792064,,,,,,,0.4413629174232483,-0.34475210309028625,-0.06454053521156311,-0.15266337990760803,-1.6029611825942993,2.2515413761138916
1764808612.801348,-2.7531244039088487,1.977891141796112,0.2756877034440636,-1.1396667957305908,-0.3692764639854431,-2.5211098194122314,,,,,,
1764808612.802094,,,,,,,0.45408040285110474,-0.3076704144477844,-0.0398506224155426,-0.12497556209564209,-1.6848992109298706,2.424762487411499
1764808612.8114,-2.7545582361042498,2.2515642905473707,0.148924487054348,-1.2426031827926636,-0.3176965117454529,-2.6958425045013428,,,,,,
1764808612.812124,,,,,,,0.47861629724502563,-0.27479788661003113,-0.011438131332397461,-0.14193087816238403,-1.759732961654663,2.57993745803833
1764808612.821453,-2.649906313757598,2.745453138628602,0.01742956596761942,-1.315788745880127,-0.27165764570236206,-2.842378616333008,,,,,,
1764808612.822154,,,,,,,0.5073229074478149,-0.23534590005874634,0.012429803609848022,-0.18930159509181976,-1.8008778095245361,2.723782539367676
1764808612.831505,-2.4397943675518032,3.3505063596904274,0.009580606032907963,-1.3751449584960938,-0.23245473206043243,-2.9562408924102783,,,,,,
1764808612.832184,,,,,,,0.5337662696838379,-0.22179782390594482,3.254413604736328e-05,-0.2459811568260193,-1.8568534851074219,2.8656957149505615
1764808612.841557,-2.2137504004597663,3.7540409831076857,0.09341346610412,-1.4422606229782104,-0.22257839143276215,-3.038421392440796,,,,,,
1764808612.842214,,,,,,,0.5634191632270813,-0.23777249455451965,-0.021336644887924194,-0.30272671580314636,-1.9354606866836548,2.9899508953094482
1764808612.85161,-2.0470798288345335,3.5687364381611344,0.13956731451377272,-1.5115526914596558,-0.23324832320213318,-3.1112046241760254,,,,,,
1764808612.852244,,,,,,,0.5636776089668274,-0.2830691933631897,-0.027536749839782715,-0.28310516476631165,-2.0224521160125732,3.1348373889923096
1764808612.861662,-2.135925987023115,2.9963012921094894,0.23893384380340574,-1.5875561237335205,-0.2572513818740845,-3.2200472354888916,,,,,,
1764808612.862274,,,,,,,0.5270761251449585,-0.3143756687641144,-0.03744238615036011,-0.21015425026416779,-2.0538623332977295,3.3067891597747803
1764808612.871714,-2.494477559375763,2.5431284852981566,0.4639784245945513,-1.6902797222137451,-0.2815731465816498,-3.381744146347046,,,,,,
1764808612.872304,,,,,,,0.5146803259849548,-0.2929360866546631,-0.01594887673854828,-0.10899939388036728,-2.0485472679138184,3.4388115406036377
1764808612.881767,-2.8890368491768834,2.431676527547836,0.43981195158734915,-1.7922117710113525,-0.2873047888278961,-3.582514524459839,,,,,,
1764808612.882335,,,,,,,0.5460814237594604,-0.23295322060585022,0.05744160711765289,0.0601494200527668,-2.070358991622925,3.5534911155700684
1764808612.891819,-3.1053806755095716,2.6884260140269993,-0.05262903577312827,-1.8412889242172241,-0.2623789310455322,-3.787416696548462,,,,,,
1764808612.892365,,,,,,,0.5780285596847534,-0.18130910396575928,0.1018255352973938,0.3048216998577118,-2.132517099380493,3.6902713775634766
1764808612.901871,-3.16081263987422,3.1877702049046754,-0.634670287625119,-1.8409125804901123,-0.18893562257289886,-3.9729206562042236,,,,,,
1764808612.902395,,,,,,,0.5828086137771606,-0.18044161796569824,0.09205164015293121,0.4761226177215576,-2.184128761291504,3.820702314376831
1764808612.911924,-3.0294220559448,3.6523411885648964,-0.7869055066626518,-1.8196935653686523,-0.10637407004833221,-4.114509105682373,,,,,,
1764808612.912425,,,,,,,0.5705819725990295,-0.20326322317123413,0.12926828861236572,0.4063948094844818,-2.1393208503723145,3.9041106700897217
1764808612.921976,-2.7203455853790044,3.9971933213889597,-0.5672913534224033,-1.7851366996765137,-0.012534393928945065,-4.204935073852539,,,,,,
1764808612.922455,,,,,,,0.5670672059059143,-0.1969577670097351,0.19009476900100708,0.20191651582717896,-1.9799580574035645,4.059360504150391
1764808612.932028,-2.3342343904495237,4.358489224013686,-0.29086159943938256,-1.7615175247192383,0.10348257422447205,-4.242912769317627,,,,,,
1764808612.932485,,,,,,,0.6050766110420227,-0.1815146803855896,0.1755799800157547,0.11514550447463989,-1.9030835628509521,4.237534523010254
1764808612.942081,-2.0304864214301106,4.613714861926436,0.03607088234517723,-1.7839738130569458,0.2119475156068802,-4.247427463531494,,,,,,
1764808612.942515,,,,,,,0.6648743748664856,-0.171977698802948,0.1129264235496521,0.1473311334848404,-1.9144346714019775,4.388879776000977
1764808612.952133,-1.976723851582408,4.610244555467367,0.3432628178060055,-1.8613897562026978,0.2818785607814789,-4.266439914703369,,,,,,
1764808612.952545,,,,,,,0.7084193825721741,-0.14794158935546875,0.057488515973091125,0.23761802911758423,-1.918721318244934,4.504838466644287
1764808612.962186,-2.198353509363532,4.425297737917304,0.5286182161569595,-1.9497257471084595,0.3016006052494049,-4.341227054595947,,,,,,
1764808612.962575,,,,,,,0.7316203117370605,-0.11978840827941895,0.028804004192352295,0.33619147539138794,-1.9318920373916626,4.598139762878418
1764808612.972238,-2.4610183573663234,4.08057770704031,0.4761000934123993,-2.014261245727539,0.3492816388607025,-4.473941802978516,,,,,,
1764808612.972605,,,,,,,0.7292750477790833,-0.12310826778411865,0.030138716101646423,0.5086371898651123,-1.944280743598938,4.757261753082275
1764808612.98229,-2.6085160264879463,3.682105627709627,0.3752069025447592,-2.0606637001037598,0.46309635043144226,-4.638803005218506,,,,,,
1764808612.982635,,,,,,,0.6879764199256897,-0.13345009088516235,0.03634162247180939,0.6452760100364685,-1.9190733432769775,4.878864765167236
1764808612.992343,-2.6646131767630576,3.483073878444731,0.34539866079092024,-2.0986146926879883,0.5596374869346619,-4.841191291809082,,,,,,
1764808612.992666,,,,,,,0.6486716866493225,-0.0886298418045044,0.09046006202697754,0.731595516204834,-1.8293871879577637,4.926971435546875
1764808613.002395,-2.4330969157397746,3.6454683801859615,0.15062894375151953,-2.1234302520751953,0.6361253261566162,-5.034468173980713,,,,,,
1764808613.002696,,,,,,,0.64556485414505,-0.009736955165863037,0.17249995470046997,0.7476083040237427,-1.7298460006713867,4.974005699157715
1764808613.012447,-1.8095283793002366,4.298562286317348,-0.3627098610758781,-2.1192636489868164,0.6820526123046875,-5.157498836517334,,,,,,
1764808613.012726,,,,,,,0.6667051911354065,0.07008594274520874,0.23973441123962402,0.7062103748321533,-1.6321226358413696,5.013453483581543
1764808613.0225,-0.8365063537210226,5.2605999765455715,-0.7725742720365524,-2.10538649559021,0.7108014225959778,-5.165456295013428,,,,,,
1764808613.022756,,,,,,,0.6963353157043457,0.13167893886566162,0.27203863859176636,0.7458398342132568,-1.4826369285583496,5.107833385467529
1764808613.032552,0.14512743285894394,6.169537944748997,-0.803806445646286,-2.09297513961792,0.7463769912719727,-5.071804523468018,,,,,,
1764808613.032786,,,,,,,0.7308954000473022,0.13124507665634155,0.24932479858398438,0.9426019191741943,-1.3607392311096191,5.258635520935059
1764808613.042604,0.503600094756484,6.5815352760851376,-0.5901204403460025,-2.039964437484741,0.7508681416511536,-4.948453426361084,,,,,,
1764808613.042816,,,,,,,0.7530686855316162,0.08972996473312378,0.2554461359977722,1.170965552330017,-1.2790268659591675,5.378872871398926
1764808613.052657,0.12031038698852062,6.262711318486929,-0.40256840873360633,-1.940860390663147,0.7261008024215698,-4.877059459686279,,,,,,
1764808613.052846,,,,,,,0.7335324287414551,0.07625037431716919,0.2843171954154968,1.414430856704712,-1.1178538799285889,5.453444957733154
1764808613.062709,-0.6221721136450767,5.6044373793691395,-0.24371289477348326,-1.847622036933899,0.7016146183013916,-4.8854217529296875,,,,,,
1764808613.062876,,,,,,,0.6760581135749817,0.13223695755004883,0.25633299350738525,1.8287279605865479,-0.8690813183784485,5.45624303817749
1764808613.072761,-1.1682090821146964,5.276593664491176,-0.0075134443700313564,-1.8276982307434082,0.6950519680976868,-4.93564510345459,,,,,,
1764808613.072905,,,,,,,0.6423668265342712,0.2650567293167114,0.24695581197738647,2.3948974609375,-0.6011286973953247,5.381853103637695
1764808613.082814,-1.2109621821701526,5.401866642323136,0.06323587958123535,-1.8714512586593628,0.7521218657493591,-4.968420028686523,,,,,,
1764808613.082935,,,,,,,0.6533804535865784,0.440407395362854,0.22892601788043976,3.202988386154175,-0.3324836790561676,5.378271579742432
1764808613.092866,-0.9095417793154716,5.69168136305809,-0.23859606321640311,-1.9327677488327026,0.9151579141616821,-4.974789142608643,,,,,,
1764808613.092966,,,,,,,0.6746925115585327,0.5154308676719666,0.172515407204628,3.881654977798462,-0.12393500655889511,5.409864902496338
1764808613.102918,-0.6029150399893521,5.999538520961999,-0.6314743411280215,-1.9709457159042358,1.1126576662063599,-4.973972320556641,,,,,,
1764808613.102996,,,,,,,0.6877515316009521,0.47642946243286133,0.16211779415607452,3.843945264816284,-0.026171427220106125,5.207165241241455
1764808613.112971,-0.11709259398579597,6.369342139691114,-0.5363000758964568,-1.9557501077651978,1.210117220878601,-4.942088603973389,,,,,,
1764808613.113026,,,,,,,0.7051416039466858,0.3294847011566162,0.2160860300064087,3.0311665534973145,0.18468569219112396,4.972407817840576
1764808613.123023,0.7308779875576495,6.825355138364434,-0.21003274348974227,-1.863314151763916,1.1793361902236938,-4.851785182952881,,,,,,
1764808613.123056,,,,,,,0.7264890670776367,0.10108870267868042,0.3213815987110138,1.950189471244812,0.4693949222564697,5.009066104888916
1764808613.133075,1.683975415483117,7.168201192063092,-0.2913841620087623,-1.6657235622406006,1.0746080875396729,-4.698237419128418,,,,,,
1764808613.133086,,,,,,,0.7406321167945862,-0.02563166618347168,0.37871286273002625,1.2038204669952393,0.6459283828735352,5.134907245635986
1764808613.143116,,,,,,,0.7118785381317139,0.08968228101730347,0.33243152499198914,1.0372570753097534,0.7113627791404724,5.125357627868652
1764808613.143128,2.2978379659444093,7.226267596584558,-0.4940683693666011,-1.44168221950531,0.8847450017929077,-4.5372233390808105,,,,,,
1764808613.153146,,,,,,,0.6623077988624573,0.3147246837615967,0.2625318169593811,1.366591453552246,0.8181254863739014,5.056640148162842
1764808613.15318,2.3280144930213686,6.949813292682171,-0.422771677198261,-1.2698074579238892,0.5806757807731628,-4.439330577850342,,,,,,
1764808613.163176,,,,,,,0.6344399452209473,0.44565749168395996,0.2212049961090088,2.0234217643737793,0.992777943611145,5.051907062530518
1764808613.163233,2.050767577436566,6.366866104966402,-0.28354353151097894,-1.1831060647964478,0.20609715580940247,-4.427402973175049,,,,,,
1764808613.173206,,,,,,,0.6434190273284912,0.47970640659332275,0.20469290018081665,2.779928207397461,1.1568491458892822,5.1001200675964355
1764808613.173285,1.8733809660077094,5.78987285721898,-0.371020593303442,-1.1659430265426636,-0.11467902362346649,-4.465391159057617,,,,,,
1764808613.183236,,,,,,,0.666845440864563,0.49337589740753174,0.1961546540260315,3.4617185592651367,1.3213638067245483,5.142056465148926
1764808613.183337,1.7758529041916131,5.527077660834789,-0.7331494396209717,-1.191991925239563,-0.2916894853115082,-4.504342079162598,,,,,,
1764808613.193266,,,,,,,0.6801490187644958,0.483253538608551,0.21200144290924072,3.897737741470337,1.4655177593231201,5.119202613830566
1764808613.19339,1.641677073457837,5.474336250728369,-1.1014775789700448,-1.229676365852356,-0.33598846197128296,-4.510979652404785,,,,,,
1764808613.203297,,,,,,,0.6833230257034302,0.432867169380188,0.24966961145401,4.060600280761719,1.5967615842819214,5.0582356452941895
1764808613.203442,1.3770447247743607,5.499176677474379,-1.284492697805166,-1.2619421482086182,-0.32511743903160095,-4.486396789550781,,,,,,
1764808613.213327,,,,,,,0.6765456199645996,0.3527147173881531,0.29515546560287476,4.018691539764404,1.7522445917129517,5.041748523712158
1764808613.213494,1.0476970350742338,5.59460864379406,-1.3642974714040756,-1.2708792686462402,-0.3014993667602539,-4.443893909454346,,,,,,
1764808613.223357,,,,,,,0.6667174696922302,0.2839386463165283,0.3118007183074951,3.5672924518585205,1.8819570541381836,5.012268543243408
1764808613.223547,0.6479015981853008,5.710166283297538,-1.6405296569883823,-1.2377170324325562,-0.28627461194992065,-4.421087741851807,,,,,,
1764808613.233387,,,,,,,0.6565024852752686,0.20911329984664917,0.31663990020751953,2.7661211490631104,2.0198464393615723,4.855819225311279
1764808613.233599,0.2846358567923307,5.754453753313422,-1.5426223865963518,-1.220433235168457,-0.32578805088996887,-4.447035789489746,,,,,,
1764808613.243418,,,,,,,0.6537944674491882,0.11789292097091675,0.3326682448387146,1.7576320171356201,2.2629826068878174,4.737566947937012
1764808613.243651,0.2808154217213392,5.8176265410631895,-1.0138380200922488,-1.2336091995239258,-0.4312465786933899,-4.512458324432373,,,,,,
1764808613.253447,,,,,,,0.6765934228897095,0.09530866146087646,0.35830456018447876,0.9040244221687317,2.4635987281799316,4.706046104431152
1764808613.253704,0.5201338809281587,5.927206859722733,-0.8304232344150543,-1.2372547388076782,-0.5974113345146179,-4.5918288230896,,,,,,
1764808613.263477,,,,,,,0.7188172340393066,0.14340323209762573,0.3487456440925598,0.17193689942359924,2.514739513397217,4.591133117675781
1764808613.263756,0.8443915540128946,6.180584239420295,-0.95701387071684,-1.2079041004180908,-0.8210305571556091,-4.658000946044922,,,,,,
1764808613.273507,,,,,,,0.7714095115661621,0.21924418210983276,0.36756232380867004,-0.42356428503990173,2.4825243949890137,4.386972427368164
1764808613.273808,1.2480758150339126,6.424685256728529,-1.0401564104363321,-1.1684277057647705,-1.0847457647323608,-4.687964916229248,,,,,,
1764808613.283537,,,,,,,0.8294916749000549,0.2540879249572754,0.369900643825531,-0.8974866271018982,2.464123010635376,4.235088348388672
1764808613.283861,1.6801362757116556,6.639884589201212,-0.9991279422163962,-1.1322875022888184,-1.3813153505325317,-4.6649861335754395,,,,,,
1764808613.293567,,,,,,,0.872387707233429,0.29957109689712524,0.342335045337677,-1.3267263174057007,2.4190683364868164,4.122168064117432
1764808613.293913,1.9798890376150606,6.837162480536103,-0.9880544672772288,-1.0869113206863403,-1.6583868265151978,-4.620153427124023,,,,,,
1764808613.303598,,,,,,,0.8958771824836731,0.3758535087108612,0.31824126839637756,-1.6804587841033936,2.312917470932007,4.006784915924072
1764808613.303965,1.9267595049738884,6.823807324400544,-1.2445499789953232,-1.0321040153503418,-1.8523988723754883,-4.562378883361816,,,,,,
1764808613.313628,,,,,,,0.888036847114563,0.42569562792778015,0.3027750551700592,-2.0541765689849854,2.251310110092163,3.85673189163208
1764808613.314018,1.6540581238642333,6.694503483617305,-1.4076570129200816,-1.026315689086914,-1.9574172496795654,-4.491433620452881,,,,,,
1764808613.323658,,,,,,,0.861051082611084,0.43652594089508057,0.28526419401168823,-2.4301490783691406,2.2614097595214844,3.708836555480957
1764808613.32407,1.309608726622164,6.574920241859555,-1.2965958080530167,-1.0776866674423218,-1.9811875820159912,-4.429752826690674,,,,,,
1764808613.333688,,,,,,,0.8483301997184753,0.44311127066612244,0.27611178159713745,-2.8297715187072754,2.2370877265930176,3.557791233062744
1764808613.334122,0.8826230849906802,6.462204547783732,-1.2291972193017602,-1.1589833498001099,-1.9364978075027466,-4.397892951965332,,,,,,
1764808613.343718,,,,,,,0.8604059219360352,0.4705485701560974,0.2698501944541931,-3.232273817062378,2.192523956298828,3.399777889251709
1764808613.344175,0.549620964436233,6.579328121429682,-1.2340142641946672,-1.2421774864196777,-1.8538639545440674,-4.392462730407715,,,,,,
1764808613.353748,,,,,,,0.8942529559135437,0.4919022023677826,0.268063485622406,-3.4668400287628174,2.1242520809173584,3.292450428009033
1764808613.354227,0.4115025335565209,6.907561712408065,-1.452539233958721,-1.2802495956420898,-1.7620712518692017,-4.383911609649658,,,,,,
1764808613.363778,,,,,,,0.9085846543312073,0.5160694122314453,0.2510502338409424,-3.2579233646392822,2.0961451530456543,3.2632715702056885
1764808613.364279,0.49603287437260146,7.228556584304571,-1.9308099494084714,-1.244280457496643,-1.702428936958313,-4.342530250549316,,,,,,
1764808613.373808,,,,,,,0.8779239058494568,0.6314956545829773,0.22937870025634766,-2.993903875350952,2.006455659866333,3.2079148292541504
1764808613.374332,0.7064449725687504,7.422346633523702,-2.275230705077946,-1.205027461051941,-1.6806552410125732,-4.269485950469971,,,,,,
1764808613.383838,,,,,,,0.8533533215522766,0.7314149141311646,0.20672230422496796,-2.782245635986328,1.8972874879837036,3.1411337852478027
1764808613.384384,0.986187942752987,7.36638216971755,-2.3515116884648797,-1.1788965463638306,-1.625291109085083,-4.199238300323486,,,,,,
1764808613.393868,,,,,,,0.8410868644714355,0.6857970356941223,0.18211637437343597,-2.7067556381225586,1.8040624856948853,3.1076669692993164
1764808613.394436,1.4031602860227226,7.064477782738209,-2.380060906600952,-1.171552062034607,-1.4885799884796143,-4.1314311027526855,,,,,,
1764808613.403898,,,,,,,0.8102580308914185,0.6244354844093323,0.1602848768234253,-2.7286388874053955,1.7476940155029297,3.0585360527038574
1764808613.404489,1.896651074697077,6.723147394299507,-2.28878226056844,-1.1689821481704712,-1.3429168462753296,-4.048305034637451,,,,,,
1764808613.413929,,,,,,,0.7695032954216003,0.6056879162788391,0.14644205570220947,-2.7844526767730713,1.705727219581604,3.0025811195373535
1764808613.414541,2.2090356468975543,6.419927248546481,-2.222176868021488,-1.1546547412872314,-1.2374005317687988,-3.967444896697998,,,,,,
1764808613.423959,,,,,,,0.729188084602356,0.6049882173538208,0.15581172704696655,-2.884680986404419,1.6713542938232422,2.9641237258911133
1764808613.424593,2.379977466101199,6.255233529952168,-2.1543872341260313,-1.1392911672592163,-1.21311354637146,-3.8854217529296875,,,,,,
1764808613.433989,,,,,,,0.6876608729362488,0.5741366744041443,0.18376201391220093,-2.9774909019470215,1.6560075283050537,2.913935899734497
1764808613.434646,2.4338966878153383,6.028586336269974,-2.1314789444863793,-1.096909523010254,-1.2504549026489258,-3.8504700660705566,,,,,,
1764808613.444019,,,,,,,0.6384944915771484,0.5470092296600342,0.20824795961380005,-3.0783917903900146,1.6847175359725952,2.87380313873291
1764808613.444698,2.4038684831678867,5.6296296882927415,-2.3113196710690853,-1.0326921939849854,-1.2745366096496582,-3.8700952529907227,,,,,,
1764808613.454049,,,,,,,0.5965110063552856,0.5342664122581482,0.21916449069976807,-3.0697717666625977,1.7289341688156128,2.886493444442749
1764808613.45475,2.5903987705171105,5.396871318253875,-2.2943930861875415,-0.978988766670227,-1.3096641302108765,-3.8901681900024414,,,,,,
1764808613.464079,,,,,,,0.5865999460220337,0.5272302031517029,0.21545660495758057,-2.983201503753662,1.7731525897979736,2.917393445968628
1764808613.464803,2.7306328783765434,5.317259436878562,-2.3066551863893867,-0.9564282894134521,-1.3900994062423706,-3.9025776386260986,,,,,,
1764808613.474109,,,,,,,0.6119198203086853,0.5323482751846313,0.20999395847320557,-2.908900737762451,1.7490296363830566,2.9462783336639404
1764808613.474855,2.7293255951702595,5.317141947978735,-2.336344514471292,-0.9787712693214417,-1.5146979093551636,-3.9112908840179443,,,,,,
1764808613.484139,,,,,,,0.6687272787094116,0.5374678373336792,0.20099937915802002,-2.8333687782287598,1.6570786237716675,2.990445137023926
1764808613.484908,2.6463579736262557,5.430117754295468,-2.3873767825722694,-0.9828762412071228,-1.5991874933242798,-3.928424596786499,,,,,,
1764808613.49417,,,,,,,0.7000156044960022,0.5191830992698669,0.19812870025634766,-2.7567851543426514,1.5375045537948608,3.0369772911071777
1764808613.49496,2.4923878936201334,5.32158957503736,-2.6203715917155144,-0.9168691635131836,-1.5567408800125122,-3.9191436767578125,,,,,,
1764808613.504199,,,,,,,0.6501857042312622,0.5181689262390137,0.1980351209640503,-2.770860433578491,1.5401142835617065,3.038045644760132
1764808613.505012,2.2900259770192206,5.053934079140425,-2.4352453259453175,-0.8479966521263123,-1.3995970487594604,-3.853868246078491,,,,,,
1764808613.51423,,,,,,,0.5767077207565308,0.528733491897583,0.17088782787322998,-2.847139835357666,1.597314715385437,3.028538942337036
1764808613.515065,1.9208146250948308,4.745297753557563,-1.8581024405941367,-0.8079564571380615,-1.1689313650131226,-3.761892795562744,,,,,,
1764808613.52426,,,,,,,0.5367920994758606,0.5005278587341309,0.12368296086788177,-2.778856039047241,1.6389819383621216,2.9982590675354004
1764808613.525117,1.4320682544685899,4.261043579784036,-1.4693918768212197,-0.7808648943901062,-0.9231152534484863,-3.6601953506469727,,,,,,
1764808613.53429,,,,,,,0.5008953213691711,0.5369613170623779,0.03307390213012695,-2.5948758125305176,1.647172212600708,2.938730239868164
1764808613.535169,1.149177633908391,3.7051083176344632,-1.0876458913639186,-0.7957706451416016,-0.7501910328865051,-3.565187931060791,,,,,,
1764808613.54432,,,,,,,0.4769214391708374,0.6172134876251221,-0.06288803368806839,-2.1786444187164307,1.6241852045059204,2.8997726440429688
1764808613.545222,1.1760846377953886,3.2485762635231015,-0.8186497945129871,-0.8568039536476135,-0.6526064276695251,-3.4933841228485107,,,,,,
1764808613.55435,,,,,,,0.47104036808013916,0.6293341517448425,-0.12595604360103607,-1.798619031906128,1.556457281112671,2.8420629501342773
1764808613.555274,1.5221560832813381,2.9995979955673215,-0.9163906222969294,-0.9389485716819763,-0.6005397439002991,-3.4425415992736816,,,,,,
1764808613.56438,,,,,,,0.4748263359069824,0.6092183589935303,-0.10586667060852051,-1.52822744846344,1.484567403793335,2.8356714248657227
1764808613.565326,1.977612909376621,3.2781314438313243,-1.2317220616042612,-0.9952110052108765,-0.533755898475647,-3.3790810108184814,,,,,,
1764808613.57441,,,,,,,0.4881601333618164,0.501480221748352,-0.040517911314964294,-1.4329012632369995,1.3450270891189575,2.815777540206909
1764808613.575379,2.43342249443233,3.83807009640336,-1.6175333968043326,-0.9876490831375122,-0.4863387644290924,-3.2939159870147705,,,,,,
1764808613.58444,,,,,,,0.46620893478393555,0.40785330533981323,-0.0010689347982406616,-1.5466262102127075,1.2684574127197266,2.781142234802246
1764808613.585431,2.672029005977511,3.9772587868630884,-1.6778274142473935,-0.9399641156196594,-0.5051010251045227,-3.2227940559387207,,,,,,
1764808613.594471,,,,,,,0.4246698021888733,0.3659885823726654,0.005086049437522888,-1.7173854112625122,1.1689891815185547,2.7726643085479736
1764808613.595483,2.865833083721995,3.564040973821282,-1.5736170981884001,-0.8721057772636414,-0.5847782492637634,-3.1637728214263916,,,,,,
1764808613.6045,,,,,,,0.3698030114173889,0.36181730031967163,-0.01400148868560791,-1.8858932256698608,1.1011043787002563,2.737401008605957
1764808613.605536,3.1375226574406025,2.7694226277589795,-1.2318950800836086,-0.8404971957206726,-0.7430200576782227,-3.115588426589966,,,,,,
1764808613.614531,,,,,,,0.3096027970314026,0.40561938285827637,-0.03554891049861908,-1.954622507095337,1.0818870067596436,2.7064132690429688
1764808613.615588,3.3493113046869634,1.961149265831709,-0.9399836793303489,-0.8419104814529419,-0.8913883566856384,-3.088353395462036,,,,,,
1764808613.624561,,,,,,,0.25992822647094727,0.4441303014755249,-0.08585546910762787,-1.836919903755188,1.0430477857589722,2.674504041671753
1764808613.62564,3.6057992176204916,1.409864459836483,-0.8833809176206588,-0.8459635376930237,-0.9895463585853577,-3.0698022842407227,,,,,,
1764808613.634591,,,,,,,0.22157269716262817,0.49379873275756836,-0.16981790959835052,-1.6461968421936035,1.0419098138809204,2.593716621398926
1764808613.635693,3.8348470427036285,0.9987228685468434,-0.8021396814778446,-0.8382161855697632,-1.0348701477050781,-3.03576922416687,,,,,,
1764808613.644621,,,,,,,0.19400382041931152,0.5812309980392456,-0.2273097187280655,-1.3239414691925049,1.0647916793823242,2.553800582885742
1764808613.645745,4.040716821295023,1.019134372934699,-0.6658347297608852,-0.8224214911460876,-0.9392837882041931,-2.9270150661468506,,,,,,
1764808613.654651,,,,,,,0.18416279554367065,0.5928480625152588,-0.3039987087249756,-1.0639835596084595,1.0125553607940674,2.502718687057495
1764808613.655797,4.153116873550415,1.3042851935118436,-0.608530834044516,-0.796890914440155,-0.7371323704719543,-2.7315497398376465,,,,,,
1764808613.664681,,,,,,,0.17673534154891968,0.5693949460983276,-0.3469356298446655,-0.9512311220169067,0.9822545051574707,2.419085741043091
1764808613.66585,3.935809170621633,1.3506196591854094,-0.49304947464764115,-0.8021695613861084,-0.539764404296875,-2.5155231952667236,,,,,,
1764808613.674711,,,,,,,0.1720139980316162,0.5324527621269226,-0.3378183841705322,-0.9201292395591736,0.9483844041824341,2.3431742191314697
1764808613.675902,3.598111585727334,1.1720955681592224,-0.5259586415588855,-0.8427004814147949,-0.3649998903274536,-2.362135887145996,,,,,,
1764808613.684741,,,,,,,0.16620594263076782,0.5130069255828857,-0.29154670238494873,-0.8963112235069275,0.9512917995452881,2.3021531105041504
1764808613.685954,3.3282904362291097,1.048871924072504,-0.7835738049566745,-0.8974524140357971,-0.17614103853702545,-2.308629035949707,,,,,,
1764808613.694771,,,,,,,0.16598474979400635,0.4893621802330017,-0.22582517564296722,-0.9021161198616028,0.938231348991394,2.2686142921447754
1764808613.696007,3.337542248699069,1.3335849377542732,-1.2115092946588992,-0.9311493635177612,0.0344320647418499,-2.3278675079345703,,,,,,
1764808613.704801,,,,,,,0.1713782548904419,0.4713660478591919,-0.19171680510044098,-0.9552887678146362,0.9211639761924744,2.216810464859009
1764808613.706059,3.5948698273271322,1.7544623256385325,-1.4707967751830815,-0.9221153855323792,0.1945551633834839,-2.361438274383545,,,,,,
1764808613.714832,,,,,,,0.1803458333015442,0.4856533408164978,-0.19562986493110657,-0.8907259106636047,0.8920676112174988,2.185253858566284
1764808613.716111,4.095202444720268,2.0818565431833265,-1.5887942090541123,-0.8730883598327637,0.29757216572761536,-2.3401288986206055,,,,,,
1764808613.724863,,,,,,,0.18489980697631836,0.546586275100708,-0.27804091572761536,-0.8038099408149719,0.8052605390548706,2.124498128890991
1764808613.726164,4.815741409093142,2.087661430069804,-1.3354741125017404,-0.8271431922912598,0.28096655011177063,-2.2435379028320312,,,,,,
1764808613.734892,,,,,,,0.18697279691696167,0.6382811069488525,-0.35921886563301086,-0.7142848372459412,0.6662456393241882,2.0346360206604004
