timestamp,phone_accel_x,phone_accel_y,phone_accel_z,phone_gyro_x,phone_gyro_y,phone_gyro_z,watch_accel_x,watch_accel_y,watch_accel_z,watch_gyro_x,watch_gyro_y,watch_gyro_z
1764808574.170889,-0.9726710201844573,2.6061568961411714,0.9984840913549065,,,,,,,,,
1764808574.176254,,,,,,,0.45533257722854614,-0.02292020618915558,0.03830324858427048,-0.17688751220703125,-0.42757105827331543,-2.651862144470215
1764808574.180941,-0.9489989065654575,3.394327381238341,0.9894786548614501,0.9845333695411682,-0.28286680579185486,2.269650936126709,,,,,,
1764808574.186283,,,,,,,0.5127443671226501,-0.0403437614440918,0.0503154993057251,-0.21730844676494598,-0.5836325287818909,-2.6918368339538574
1764808574.190993,-1.0087196541652084,3.60237041221559,0.9202909907363355,1.0549100637435913,-0.3323478102684021,2.308408737182617,,,,,,
1764808574.196313,,,,,,,0.46301865577697754,-0.07330060005187988,0.11469119787216187,-0.2702910304069519,-0.5889636874198914,-2.654298782348633
1764808574.201046,-1.246222149991244,3.442980060726404,0.8086743439435958,1.1681288480758667,-0.2562834918498993,2.3163161277770996,,,,,,
1764808574.206343,,,,,,,0.36461132764816284,-0.12063291668891907,0.15095728635787964,-0.3234938085079193,-0.5380972623825073,-2.619472026824951
1764808574.211098,-1.550017903675139,3.0397102257251736,0.5346643644534051,1.2813241481781006,-0.12329135835170746,2.289440870285034,,,,,,
1764808574.216373,,,,,,,0.26028746366500854,-0.16262057423591614,0.15086627006530762,-0.43440523743629456,-0.41023892164230347,-2.635620355606079
1764808574.22115,-1.7888704989358781,2.402458031848073,0.5706077844940126,1.3266669511795044,-0.015241671353578568,2.225294589996338,,,,,,
1764808574.226403,,,,,,,0.194327712059021,-0.16587278246879578,0.14503467082977295,-0.5721777677536011,-0.22108684480190277,-2.6407060623168945
1764808574.231202,-1.8982488652825353,1.6934657128840684,0.8473743692159652,1.2803492546081543,0.032909881323575974,2.1326091289520264,,,,,,
1764808574.236433,,,,,,,0.18773382902145386,-0.16184291243553162,0.12180733680725098,-0.6394529342651367,0.09360024333000183,-2.5980184078216553
1764808574.241255,-1.8896826969891785,1.3374194013506173,1.3476197467170654,1.1367225646972656,0.02713407576084137,2.0213074684143066,,,,,,
1764808574.246463,,,,,,,0.2858124375343323,-0.11571851372718811,0.07734037190675735,-0.625457227230072,0.2649245858192444,-2.5119428634643555
1764808574.251307,-1.7336878331571817,2.0992893240213393,1.7186004464015363,1.0494844913482666,0.01858719252049923,1.9340261220932007,,,,,,
1764808574.256493,,,,,,,0.45736825466156006,-0.07931739091873169,0.04457193985581398,-0.507451593875885,0.07079692929983139,-2.4974477291107178
1764808574.261359,-1.4102023134887218,3.215085497331619,1.3079505841515957,1.0791921615600586,-0.03842928633093834,1.9243285655975342,,,,,,
1764808574.266523,,,,,,,0.5441526770591736,-0.08163219690322876,0.0311889685690403,-0.3415251672267914,-0.12830418348312378,-2.4909677505493164
1764808574.271411,-1.1357710398465395,3.7673207359194754,1.0065619646746664,1.1397154331207275,-0.13997775316238403,1.9680120944976807,,,,,,
1764808574.276553,,,,,,,0.5131953358650208,-0.1033506989479065,0.04170043393969536,-0.21635209023952484,-0.18198099732398987,-2.4301300048828125
1764808574.281464,-1.1123802273869514,3.737535253986716,1.0204651831470428,1.1770274639129639,-0.2258646935224533,2.003302574157715,,,,,,
1764808574.286583,,,,,,,0.42669421434402466,-0.13873961567878723,0.06777828931808472,-0.1711587905883789,-0.16945400834083557,-2.3507497310638428
1764808574.291516,-1.2307055780380964,3.2602403978317973,0.9818540782671421,1.2111999988555908,-0.27848103642463684,2.001371145248413,,,,,,
1764808574.296614,,,,,,,0.34332388639450073,-0.18238842487335205,0.091522216796875,-0.19704866409301758,-0.1508427858352661,-2.2776660919189453
1764808574.301568,-1.394733526200056,2.5652678363919255,0.7974865949749946,1.252252221107483,-0.2954210042953491,1.9554094076156616,,,,,,
1764808574.306644,,,,,,,0.27601397037506104,-0.21467828750610352,0.11010831594467163,-0.2612780034542084,-0.12322420626878738,-2.228388786315918
1764808574.311621,-1.5153642311841249,1.84816527620852,0.6825193225800991,1.2819724082946777,-0.28847017884254456,1.8751447200775146,,,,,,
1764808574.316674,,,,,,,0.21827000379562378,-0.22922354936599731,0.11652969568967819,-0.29319092631340027,-0.05299265310168266,-2.176093578338623
1764808574.321673,-1.624962962283194,1.2398200278639793,0.7193430325865745,1.2655625343322754,-0.2766570746898651,1.7786235809326172,,,,,,
1764808574.326705,,,,,,,0.16904222965240479,-0.22337228059768677,0.10926079750061035,-0.3396766483783722,0.1635337918996811,-2.1263463497161865
1764808574.331725,-1.6949939453646539,0.9729033676356077,1.0779869593977927,1.1603580713272095,-0.24644508957862854,1.6661055088043213,,,,,,
1764808574.336734,,,,,,,0.18317538499832153,-0.1795802116394043,0.06393152475357056,-0.3704701364040375,0.4011343717575073,-2.037877082824707
1764808574.341777,-1.752335542742908,1.4902800588101148,1.468650995326042,1.0772254467010498,-0.15139397978782654,1.5524131059646606,,,,,,
1764808574.346764,,,,,,,0.2934763431549072,-0.14197546243667603,0.012032032012939453,-0.35521233081817627,0.3407314717769623,-1.9783729314804077
1764808574.35183,-1.713067362193763,2.2608850766003132,1.1974515432119368,1.0738598108291626,-0.03534593805670738,1.4903316497802734,,,,,,
1764808574.356794,,,,,,,0.39772242307662964,-0.13249444961547852,-0.017705023288726807,-0.2653217017650604,0.15078258514404297,-1.9485808610916138
1764808574.361882,-1.6226768971726298,2.5681290710419415,0.8533908530265092,1.0801738500595093,0.06868664175271988,1.4977489709854126,,,,,,
1764808574.366824,,,,,,,0.41330254077911377,-0.1402280330657959,-0.022615373134613037,-0.170988529920578,0.07333198934793472,-1.9002876281738281
1764808574.371934,-1.5635066230624912,2.506081487929821,0.8777057945936918,1.0506590604782104,0.16734451055526733,1.5446016788482666,,,,,,
1764808574.376854,,,,,,,0.3558717966079712,-0.1316927671432495,0.011281371116638184,-0.15335075557231903,0.07976538687944412,-1.8781763315200806
1764808574.381986,-1.5575532676160335,2.2702444410979745,0.9914801308769732,1.0188348293304443,0.23731589317321777,1.5810801982879639,,,,,,
1764808574.386884,,,,,,,0.2882412075996399,-0.1252450942993164,0.05591076985001564,-0.16737017035484314,0.11469487845897675,-1.8706300258636475
1764808574.392039,-1.6748714870512484,1.9438316358059644,0.9455909978181123,1.0268032550811768,0.27611950039863586,1.5846456289291382,,,,,,
1764808574.396914,,,,,,,0.24122315645217896,-0.13385194540023804,0.0885995626449585,-0.13775968551635742,0.15084782242774963,-1.8473505973815918
1764808574.402091,-1.8212690859764813,1.7092478039056063,0.788968357476592,1.07265043258667,0.29914727807044983,1.551005482673645,,,,,,
1764808574.406945,,,,,,,0.20787197351455688,-0.1454678177833557,0.10360991954803467,-0.08474573493003845,0.18357780575752258,-1.8401323556900024
1764808574.412143,-1.932477882620692,1.5493448267191647,0.5890093372989446,1.1135425567626953,0.31094613671302795,1.5024603605270386,,,,,,
1764808574.416975,,,,,,,0.17581135034561157,-0.14510959386825562,0.11319983005523682,-0.07991301268339157,0.27667686343193054,-1.8644777536392212
1764808574.422195,-1.9361504336535929,1.4582225402921438,0.6294301950145512,1.1125677824020386,0.30246657133102417,1.4534586668014526,,,,,,
1764808574.427005,,,,,,,0.16767501831054688,-0.12213355302810669,0.10543406009674072,-0.12792661786079407,0.4485625922679901,-1.8612849712371826
1764808574.432248,-1.8040964173793792,1.6450515183269976,0.8808564406443387,1.1030043363571167,0.3074783682823181,1.407124400138855,,,,,,
1764808574.437035,,,,,,,0.21793639659881592,-0.1186378002166748,0.07740485668182373,-0.13794279098510742,0.49525579810142517,-1.8086555004119873
1764808574.4423,-1.6099486407637595,1.9991274065703153,0.8512357208192348,1.1157900094985962,0.33997389674186707,1.3849891424179077,,,,,,
1764808574.447065,,,,,,,0.2920476198196411,-0.15270179510116577,0.04499006271362305,-0.09923427551984787,0.37898141145706177,-1.767901062965393
1764808574.452352,-1.4432038348585365,2.14899005125761,0.7078660183478146,1.1157010793685913,0.3655836582183838,1.3909231424331665,,,,,,
1764808574.457095,,,,,,,0.3216792345046997,-0.18259406089782715,0.03141134977340698,-0.06072466820478439,0.2834804356098175,-1.7344592809677124
1764808574.462404,-1.3952069889307022,1.9589672456175087,0.7237421443283557,1.0771698951721191,0.3866395056247711,1.396433711051941,,,,,,
1764808574.467125,,,,,,,0.2932974696159363,-0.18494492769241333,0.030440807342529297,-0.04176615923643112,0.2612350583076477,-1.6962631940841675
1764808574.472457,-1.5044447777628898,1.5373948612064123,0.7330909143667668,1.018455982208252,0.40588775277137756,1.368783712387085,,,,,,
1764808574.477155,,,,,,,0.2427845001220703,-0.1736888885498047,0.0386083722114563,-0.054000549018383026,0.28101569414138794,-1.6700992584228516
1764808574.482509,-1.6759189502775669,1.1915572244763373,0.6242139947362244,0.9698312878608704,0.4153166711330414,1.3161365985870361,,,,,,
1764808574.487185,,,,,,,0.20433127880096436,-0.1551108956336975,0.051701366901397705,-0.04702972248196602,0.3258771598339081,-1.6204283237457275
1764808574.492561,-1.6785826165288686,1.083993506336212,0.5122796602964401,0.9496399760246277,0.41326043009757996,1.2658244371414185,,,,,,
1764808574.497215,,,,,,,0.18602299690246582,-0.14545708894729614,0.05790853500366211,-0.0057273441925644875,0.33593592047691345,-1.5585347414016724
1764808574.502613,-1.5532079318881034,1.1081056188076734,0.43272666950151323,0.9363096952438354,0.3988867700099945,1.2417982816696167,,,,,,
1764808574.507245,,,,,,,0.1773521900177002,-0.1561165452003479,0.055396854877471924,0.050469350069761276,0.3194224536418915,-1.5116164684295654
1764808574.512666,-1.4397826282382011,1.0956786834329366,0.45328620405793185,0.9063230752944946,0.37365254759788513,1.229514241218567,,,,,,
1764808574.517275,,,,,,,0.1689000129699707,-0.17357873916625977,0.04990673065185547,0.07789602130651474,0.31924110651016235,-1.470712661743164
1764808574.522718,-1.4369114567160606,1.0060679706126452,0.46476738301515574,0.8672609925270081,0.3532096743583679,1.2021564245224,,,,,,
1764808574.527306,,,,,,,0.16089564561843872,-0.1831657886505127,0.04740166664123535,0.08917104452848434,0.3150029480457306,-1.424041509628296
1764808574.53277,-1.494554082867503,0.8630921628296375,0.36985914830863476,0.8237185478210449,0.3338029384613037,1.1484524011611938,,,,,,
1764808574.537336,,,,,,,0.1573922038078308,-0.18288284540176392,0.040370285511016846,0.12570323050022125,0.3175766170024872,-1.3492000102996826
1764808574.542822,-1.4918793107002972,0.7583101843625306,0.3604028262425214,0.7816046476364136,0.3145405352115631,1.0848766565322876,,,,,,
1764808574.547366,,,,,,,0.15875792503356934,-0.16883736848831177,0.026775360107421875,0.1825590580701828,0.3106582760810852,-1.2597377300262451
1764808574.552875,-1.4116630336910485,0.7084405303001403,0.3824112444330007,0.7402934432029724,0.29970061779022217,1.0253006219863892,,,,,,
1764808574.557396,,,,,,,0.15830212831497192,-0.16356110572814941,0.014750957489013672,0.24063831567764282,0.271744966506958,-1.1795629262924194
1764808574.562927,-1.2857535115212202,0.6592337240606546,0.39584889122024175,0.7011153101921082,0.2870643734931946,0.9844658374786377,,,,,,
1764808574.567426,,,,,,,0.15210002660751343,-0.18468481302261353,0.010269522666931152,0.26897406578063965,0.21735255420207977,-1.1243022680282593
1764808574.572979,-1.1933832708597183,0.5347328996449708,0.4155735823877156,0.6502659916877747,0.26478835940361023,0.9583335518836975,,,,,,
1764808574.577456,,,,,,,0.1383412480354309,-0.22466206550598145,0.0072709317319095135,0.28587591648101807,0.1886782944202423,-1.0682090520858765
1764808574.583031,-1.1964403203427791,0.35466976248323917,0.529555204746127,0.5940560102462769,0.2287333756685257,0.9282281994819641,,,,,,
1764808574.587486,,,,,,,0.11358910799026489,-0.24279332160949707,0.018919646739959717,0.25150278210639954,0.18415039777755737,-1.0205880403518677
1764808574.593084,-1.3453876037508248,0.19276245973706244,0.5516216367341578,0.5475286841392517,0.18941979110240936,0.8760531544685364,,,,,,
1764808574.597516,,,,,,,0.08883875608444214,-0.22794640064239502,0.03266441822052002,0.2087818831205368,0.18277940154075623,-0.9840011596679688
1764808574.603136,-1.498325418099761,0.07658756511807441,0.45342751222476363,0.512123167514801,0.15170827507972717,0.8065447807312012,,,,,,
1764808574.607546,,,,,,,0.07094955444335938,-0.21093487739562988,0.0395815372467041,0.1593560129404068,0.18401430547237396,-0.9361854791641235
1764808574.613188,-1.625984998807311,0.0681967533916235,0.361434434312582,0.4801899492740631,0.11787308007478714,0.7296454310417175,,,,,,
1764808574.617576,,,,,,,0.06774351000785828,-0.20037198066711426,0.03966832160949707,0.09983359277248383,0.20516645908355713,-0.8665047287940979
1764808574.623241,-1.6141653816759585,0.1869213324934244,0.32265564471557734,0.44752660393714905,0.11532972007989883,0.6549514532089233,,,,,,
1764808574.627606,,,,,,,0.07901281118392944,-0.19390326738357544,0.03655177354812622,0.095179982483387,0.20605090260505676,-0.7872386574745178
1764808574.633293,-1.4701380190134048,0.36272798125445843,0.20515213184133171,0.42049235105514526,0.14323033392429352,0.5950665473937988,,,,,,
1764808574.637636,,,,,,,0.09564951062202454,-0.188149094581604,0.0315021276473999,0.12343481183052063,0.16834479570388794,-0.718291163444519
1764808574.643345,-1.2609154228627681,0.4329419196873903,0.11429288026466965,0.39574480056762695,0.1637713760137558,0.5540500283241272,,,,,,
1764808574.647667,,,,,,,0.09993705153465271,-0.1669357419013977,0.02705371379852295,0.11910824477672577,0.13706517219543457,-0.6603314280509949
1764808574.653397,-1.0879390290915965,0.38410570032596586,0.20133812651112676,0.362049400806427,0.1560007929801941,0.5269744396209717,,,,,,
1764808574.657697,,,,,,,0.09443750977516174,-0.16442912817001343,0.022967875003814697,0.1215687245130539,0.11568211019039154,-0.5985376834869385
1764808574.66345,-0.9716559979230165,0.30549218233823777,0.3034500089861452,0.3264671564102173,0.1252237856388092,0.5011747479438782,,,,,,
1764808574.667727,,,,,,,0.08609825372695923,-0.18798965215682983,0.017860233783721924,0.11717504262924194,0.09968769550323486,-0.5404391884803772
1764808574.673502,-0.9775853879719972,0.23357085546553133,0.3768389241933822,0.2949683666229248,0.07715452462434769,0.45752713084220886,,,,,,
1764808574.677757,,,,,,,0.07293212413787842,-0.19264233112335205,0.01600145921111107,0.09808092564344406,0.09961206465959549,-0.5022171139717102
1764808574.683554,-1.0129799419581889,0.1756365528911352,0.4023661641597748,0.2690630257129669,0.02017180249094963,0.3993215560913086,,,,,,
1764808574.687787,,,,,,,0.06313249468803406,-0.18015235662460327,0.015564500354230404,0.0876099094748497,0.0955137237906456,-0.4675195813179016
1764808574.693606,-1.0430261206537486,0.15230594618618487,0.41876200316548345,0.2517277002334595,-0.03663848340511322,0.3365471363067627,,,,,,
1764808574.697817,,,,,,,0.059184134006500244,-0.16885113716125488,0.01124119758605957,0.04897100105881691,0.07615867257118225,-0.4424523711204529
1764808574.703659,-1.0135586186289787,0.0962163946956396,0.44620881301760673,0.233991339802742,-0.09040006995201111,0.2782945930957794,,,,,,
1764808574.707847,,,,,,,0.05508887767791748,-0.15493154525756836,0.015754342079162598,-0.017551301047205925,0.0735144168138504,-0.4109399914741516
1764808574.713711,-0.9543266774594783,0.0518009143859148,0.4168247514925897,0.21663205325603485,-0.11558931320905685,0.23128342628479004,,,,,,
1764808574.717877,,,,,,,0.05105438828468323,-0.14826005697250366,0.017642736434936523,-0.06539186090230942,0.07925885915756226,-0.34731513261795044
1764808574.723763,-0.8727385275751351,0.09234510622024536,0.32918855361565946,0.2011275589466095,-0.10384882241487503,0.19213910400867462,,,,,,
1764808574.727907,,,,,,,0.051891595125198364,-0.15260207653045654,0.011846721172332764,-0.08137748390436172,0.060965873301029205,-0.2894212007522583
1764808574.733815,-0.7711895396798849,0.10929098032414912,0.22720073591172693,0.18600372970104218,-0.07581426203250885,0.16042165458202362,,,,,,
1764808574.737937,,,,,,,0.04414612054824829,-0.1467227339744568,0.011790633201599121,-0.08727185428142548,0.04752622917294502,-0.24832363426685333
1764808574.743868,-0.6917559374809265,0.05586100343167782,0.20298998537138102,0.16614516079425812,-0.05818505212664604,0.13104963302612305,,,,,,
1764808574.747967,,,,,,,0.02947312593460083,-0.12771457433700562,0.006360112689435482,-0.07782082259654999,0.053085047751665115,-0.20438706874847412
1764808574.75392,-0.6666074676990509,-0.05402560469806194,0.2933037318944931,0.134645015001297,-0.05985485389828682,0.09504928439855576,,,,,,
1764808574.757997,,,,,,,0.024052441120147705,-0.10908752679824829,-0.00888359546661377,-0.047248538583517075,0.06270091980695724,-0.1530011147260666
1764808574.763972,-0.6747136172652244,-0.14116554349064825,0.37129531859159465,0.10709894448518753,-0.06376589834690094,0.05607278272509575,,,,,,
1764808574.768028,,,,,,,0.025598615407943726,-0.09211134910583496,-0.017993628978729248,-0.0009404291631653905,0.05930938571691513,-0.12217262387275696
1764808574.774024,-0.6243985575228929,-0.16972703658640384,0.3763835816413164,0.08236829191446304,-0.07025787979364395,0.02942146360874176,,,,,,
1764808574.778058,,,,,,,0.02827516198158264,-0.07518035173416138,-0.028103768825531006,0.039873044937849045,0.038754045963287354,-0.09299609810113907
1764808574.784077,-0.4996534029573202,-0.15010755935907363,0.40190497638881206,0.05768346041440964,-0.0816417708992958,0.0204872228205204,,,,,,
1764808574.788088,,,,,,,0.0296819806098938,-0.07762610912322998,-0.03370922803878784,0.049573611468076706,0.010159683413803577,-0.07264981418848038
1764808574.794129,-0.41329029375612736,-0.14414602060616016,0.4458341344863176,0.031137604266405106,-0.09798160195350647,0.01675373688340187,,,,,,
1764808574.798118,,,,,,,0.024373739957809448,-0.09565961360931396,-0.028688371181488037,0.01151091419160366,-0.006903988309204578,-0.06093509495258331
1764808574.804181,-0.42067923496365545,-0.18656945031583308,0.46310792537033557,0.013340495526790619,-0.1127811074256897,0.0011533405631780624,,,,,,
1764808574.808148,,,,,,,0.01496267318725586,-0.105457603931427,-0.014778614044189453,-0.050402332097291946,-0.016863945871591568,-0.055429745465517044
1764808574.814234,-0.4469581700801849,-0.23203940811455248,0.3868548529036343,0.0029746736399829388,-0.1213705986738205,-0.02418796718120575,,,,,,
1764808574.818178,,,,,,,0.004631638526916504,-0.09273618459701538,-0.004749894142150879,-0.10791443288326263,-0.008430246263742447,-0.03269793465733528
1764808574.824286,-0.4026812214583158,-0.21242577610611915,0.3100632896460593,-0.0037789437919855118,-0.12258438766002655,-0.05201943963766098,,,,,,
1764808574.828208,,,,,,,0.0022684037685394287,-0.07303416728973389,-0.005109965335577726,-0.15679249167442322,-0.007680033333599567,-0.0007511884905397892
1764808574.834338,-0.29116671986579895,-0.12999357661306857,0.25256036422625183,-0.012921575456857681,-0.12277507036924362,-0.07746142148971558,,,,,,
1764808574.838238,,,,,,,0.009219169616699219,-0.07055962085723877,-0.013615906238555908,-0.19754473865032196,-0.005782265216112137,0.013797793537378311
1764808574.84439,-0.17863515018522738,-0.021271336087584494,0.31363106513023375,-0.034734878689050674,-0.134124293923378,-0.0949685350060463,,,,,,
1764808574.848268,,,,,,,0.023949086666107178,-0.06625920534133911,-0.02266526222229004,-0.22955593466758728,-0.005459490232169628,0.022053325548768044
1764808574.854443,-0.05718319194614887,0.06497779134511947,0.4224484365932643,-0.052604421973228455,-0.14599427580833435,-0.10217371582984924,,,,,,
1764808574.858298,,,,,,,0.04101020097732544,-0.04523921012878418,-0.028452515602111816,-0.21573342382907867,-0.04611637070775032,0.04336533695459366
1764808574.864495,0.016472411373257636,0.1048614734441042,0.39643151341378685,-0.06017179787158966,-0.15294645726680756,-0.10099606961011887,,,,,,
1764808574.868328,,,,,,,0.04720214009284973,-0.023836195468902588,-0.03017580509185791,-0.16886791586875916,-0.08850058168172836,0.06694017350673676
1764808574.874547,0.030090017837285994,0.0913625249236822,0.29933307518661023,-0.06732770800590515,-0.15106625854969025,-0.09922240674495697,,,,,,
1764808574.878359,,,,,,,0.033732205629348755,-0.01118236780166626,-0.031328439712524414,-0.14862005412578583,-0.09517127275466919,0.08573203533887863
1764808574.884599,-0.01714753415584564,0.05129822556078434,0.29124621484279634,-0.0759752094745636,-0.1398257613182068,-0.11074278503656387,,,,,,
1764808574.888389,,,,,,,0.017406970262527466,-0.01575571298599243,-0.027401089668273926,-0.13768111169338226,-0.09139890223741531,0.1041688323020935
1764808574.894652,-0.038224224454164506,-0.012213000363111496,0.28937296831682324,-0.07923225313425064,-0.12753580510616302,-0.13188321888446808,,,,,,
1764808574.898419,,,,,,,0.004054009914398193,-0.029016971588134766,-0.023799419403076172,-0.12554378807544708,-0.08382567018270493,0.12196900695562363
1764808574.904704,-0.006899111863970756,-0.08956570463478565,0.27186463802456856,-0.0810762345790863,-0.11909343302249908,-0.14896181225776672,,,,,,
1764808574.90845,,,,,,,-0.002469658851623535,-0.028189539909362793,-0.024926424026489258,-0.11620353907346725,-0.07627933472394943,0.12799572944641113
1764808574.914756,0.07645604769289494,-0.16677403199970722,0.2978754237242043,-0.08873948454856873,-0.10860404372215271,-0.16522280871868134,,,,,,
1764808574.918479,,,,,,,-0.005042761564254761,-0.019707918167114258,-0.02611684799194336,-0.11070478707551956,-0.06894206255674362,0.13840417563915253
1764808574.924809,0.11829554003477095,-0.21009879446327684,0.33608737321868537,-0.09621379524469376,-0.10285290330648422,-0.1748412400484085,,,,,,
1764808574.928509,,,,,,,-0.006895333528518677,-0.012950122356414795,-0.028423786163330078,-0.12343469262123108,-0.06494226306676865,0.13743558526039124
1764808574.934861,0.12760288208425044,-0.20585925719738005,0.3691514384306967,-0.10076327621936798,-0.09919212758541107,-0.1805710345506668,,,,,,
1764808574.938539,,,,,,,-0.008367210626602173,-0.0066378116607666016,-0.025386929512023926,-0.13737230002880096,-0.062443677335977554,0.14072784781455994
1764808574.944913,0.1707043571859598,-0.19599545030891893,0.36500776275470853,-0.09742344170808792,-0.08958209306001663,-0.17668168246746063,,,,,,
1764808574.948569,,,,,,,-0.01056620478630066,0.005238234996795654,-0.023172616958618164,-0.14691147208213806,-0.05373833701014519,0.1491200029850006
1764808574.954965,0.2103840411454439,-0.1449678583830595,0.25601649602949617,-0.08702752739191055,-0.06460163742303848,-0.1737585961818695,,,,,,
1764808574.958599,,,,,,,-0.013417214155197144,0.019251346588134766,-0.023243188858032227,-0.12217897921800613,-0.044048160314559937,0.1587264984846115
1764808574.965018,0.2514496265053749,-0.09193184924423695,0.14945406388640403,-0.08673068881034851,-0.03317146375775337,-0.16171295940876007,,,,,,
1764808574.968629,,,,,,,-0.01369979977607727,0.021994352340698242,-0.022297143936157227,-0.09576894342899323,-0.03448528051376343,0.15602098405361176
1764808574.97507,0.297546776291728,-0.07027706679701805,0.18734350342825054,-0.08960424363613129,-0.007941210642457008,-0.1457851231098175,,,,,,
1764808574.978659,,,,,,,-0.011724799871444702,0.0318109393119812,-0.01916635036468506,-0.0828268900513649,-0.031098807230591774,0.14616388082504272
1764808574.985122,0.2767074018806219,-0.07043313414156437,0.2141543534643948,-0.08968397974967957,0.007777441293001175,-0.13724274933338165,,,,,,
1764808574.988689,,,,,,,-0.0077540576457977295,0.04276555776596069,-0.016566038131713867,-0.047850269824266434,-0.03384319320321083,0.14354465901851654
1764808574.995174,0.22901509185731408,-0.08601064250171184,0.15517667931690812,-0.09018439054489136,0.022286608815193176,-0.1266484260559082,,,,,,
1764808574.99872,,,,,,,-0.005529880523681641,0.041910529136657715,-0.01670980453491211,-0.0005085503216832876,-0.03359552100300789,0.14769180119037628
1764808575.005227,0.20931378156542776,-0.09013736704289912,0.1281751290142536,-0.09006306529045105,0.03677363321185112,-0.11659961193799973,,,,,,
1764808575.00875,,,,,,,-0.009469956159591675,0.03973948955535889,-0.01186358742415905,0.03854617476463318,-0.020347893238067627,0.14392529428005219
1764808575.015279,0.21146949829459188,-0.08376490940153598,0.13579261828064917,-0.09068437665700912,0.05240852013230324,-0.10893236845731735,,,,,,
1764808575.01878,,,,,,,-0.01244613528251648,0.03860443830490112,-0.0036202669143676758,0.07014407962560654,-0.013196505606174469,0.14747309684753418
1764808575.025331,0.18688333857059478,-0.06771510735452174,0.07193710896372794,-0.08776053041219711,0.0666322186589241,-0.1084153950214386,,,,,,
1764808575.028811,,,,,,,-0.010336846113204956,0.029738962650299072,-0.0012698178179562092,0.09677781909704208,-0.01862775720655918,0.15158608555793762
1764808575.035384,0.152143449100852,-0.0721393535375595,0.022469752091914413,-0.08206269890069962,0.07881005108356476,-0.10510002821683884,,,,,,
1764808575.038841,,,,,,,-0.006023049354553223,0.0129203200340271,-0.0023387670516967773,0.1060507670044899,-0.021253367885947227,0.15224888920783997
1764808575.045436,0.11966332125663756,-0.07362988435626029,0.012121376556903124,-0.08096840232610703,0.08515690267086029,-0.10540229827165604,,,,,,
1764808575.048871,,,,,,,-0.0035773515701293945,-0.007675230503082275,0.0005261898040771484,0.09059218317270279,-0.025930412113666534,0.15319615602493286
1764808575.055488,0.10907646079063416,-0.1003735143750906,0.04971694771870971,-0.0887121930718422,0.08113501220941544,-0.11078131198883057,,,,,,
1764808575.058901,,,,,,,-0.004340380430221558,-0.015930473804473877,0.0064858198165893555,0.06066197156906128,-0.02553999237716198,0.13522401452064514
1764808575.06554,0.12593699469864367,-0.14023732272982598,0.07573240959346295,-0.09417794644832611,0.0651477724313736,-0.12056419998407364,,,,,,
1764808575.068931,,,,,,,-0.0058740973472595215,-0.010175347328186035,0.006549358367919922,0.04592590406537056,-0.027966663241386414,0.12635596096515656
1764808575.075593,0.13435586347579956,-0.155528415364027,0.05839417517110705,-0.09735696762800217,0.03882322087883949,-0.12054316699504852,,,,,,
1764808575.078961,,,,,,,-0.006204962730407715,-0.0002073049545288086,0.00604093074798584,0.03149350732564926,-0.028993045911192894,0.11296406388282776
1764808575.085645,0.14736264456510542,-0.13977496591508387,0.05242299180701375,-0.09914054721593857,0.011927282437682152,-0.11727150529623032,,,,,,
1764808575.088991,,,,,,,-0.008033990859985352,0.01046973466873169,0.008971691131591797,0.006479768082499504,-0.027183961123228073,0.10312767326831818
1764808575.095697,0.17501403707861898,-0.10338029497563839,0.04029708520546555,-0.09921698272228241,0.0016394919948652387,-0.10565506666898727,,,,,,
1764808575.099021,,,,,,,-0.00397220253944397,0.018034756183624268,0.011183500289916992,0.00859044399112463,-0.026642806828022003,0.11026427894830704
1764808575.105749,0.17915479014515875,-0.027671266257762908,-0.0169521577142179,-0.09152688831090927,0.010286138392984867,-0.09073197096586227,,,,,,
1764808575.109051,,,,,,,0.0018058717250823975,0.023739278316497803,0.010714948177337646,0.031272854655981064,-0.03486238420009613,0.11159692704677582
1764808575.115802,0.179074126124382,0.011128712257742882,-0.08595891231447458,-0.08556167036294937,0.021912168711423874,-0.07083602994680405,,,,,,
1764808575.119082,,,,,,,0.001003861427307129,0.031921446323394775,0.011199474334716797,0.056611835956573486,-0.039292555302381516,0.09978640824556351
1764808575.125854,0.16811726330220697,0.024844518399238586,-0.08331175880655646,-0.07879926264286041,0.028319120407104492,-0.0448373444378376,,,,,,
1764808575.129112,,,,,,,0.0018587112426757812,0.033876776695251465,0.015061676502227783,0.08612100034952164,-0.04544765129685402,0.08953563123941422
1764808575.135906,0.12701485306322574,0.0290396320015192,-0.032323622108250856,-0.077981136739254,0.03184594213962555,-0.024981612339615822,,,,,,
1764808575.139142,,,,,,,0.0017563402652740479,0.0277746319770813,0.013327181339263916,0.08634937554597855,-0.05094335228204727,0.08259396255016327
1764808575.145959,0.030855156990885733,-0.018619944795966147,-0.03420855907201767,-0.0731595903635025,0.036515671759843826,-0.009799443185329437,,,,,,
1764808575.149172,,,,,,,0.000493466854095459,0.012820720672607422,0.012380480766296387,0.0872441977262497,-0.054560720920562744,0.0709889829158783
1764808575.156011,-0.040080665975809095,-0.07246025605499744,-0.054413142710924144,-0.0779210552573204,0.045109160244464874,-0.001493043266236782,,,,,,
1764808575.159202,,,,,,,-0.00253140926361084,-0.012830674648284912,0.01168215274810791,0.06907814741134644,-0.05331889167428017,0.05273733660578728
1764808575.166063,-0.07243921326696873,-0.13536533277928828,-0.00040448914766311644,-0.0872049331665039,0.04415634274482727,-0.0016947839176282287,,,,,,
1764808575.169232,,,,,,,-0.010242074728012085,-0.017137646675109863,0.019395053386688232,0.012103812769055367,-0.040971145033836365,0.023660412058234215
1764808575.176115,-0.09663023619353771,-0.18541443506181238,0.022619389695674178,-0.0909259021282196,0.037144504487514496,-0.007082092575728893,,,,,,
1764808575.179262,,,,,,,-0.010196954011917114,-0.006483554840087891,0.02736353874206543,-0.024353209882974625,-0.03909121826291084,0.02003871090710163
1764808575.186168,-0.08662731309533118,-0.16300620389878748,-0.02195171956717968,-0.0889631137251854,0.024340951815247536,-0.010923735797405243,,,,,,
1764808575.189292,,,,,,,-0.0028937160968780518,-0.001128554344177246,0.022391915321350098,-0.031810861080884933,-0.056430261582136154,0.018303662538528442
1764808575.19622,-0.0488163456171751,-0.10023965886235237,-0.1026437973946333,-0.0821068063378334,0.017102479934692383,-0.005777442827820778,,,,,,
1764808575.199322,,,,,,,-0.0011441707611083984,-0.0019705891609191895,0.018970608711242676,-0.0269794724881649,-0.06630340218544006,0.013516697101294994
1764808575.206272,0.02258300320804119,-0.07808511019945144,-0.13752996346727012,-0.07918185740709305,0.009046358056366444,0.0028364225290715694,,,,,,
1764808575.209352,,,,,,,-0.004968911409378052,-0.004938960075378418,0.02121436595916748,-0.025611139833927155,-0.06523014605045319,0.012028789147734642
1764808575.216325,0.08081482742428779,-0.08945990617275237,-0.11191183034703135,-0.08345942944288254,-0.007314239628612995,0.015170054510235786,,,,,,
1764808575.219382,,,,,,,-0.005950510501861572,-0.001735389232635498,0.02109968662261963,-0.008855978026986122,-0.0642053633928299,0.014011578634381294
1764808575.226377,0.11239946773350239,-0.07822364188730717,-0.10014204370677471,-0.08352722227573395,-0.01955130510032177,0.021022429689764977,,,,,,
1764808575.229412,,,,,,,-0.0011765360832214355,0.0029366612434387207,0.01873725652694702,0.023845510557293892,-0.0714465007185936,0.022858332842588425
1764808575.236429,0.09093056324720382,-0.047772974044084544,-0.10524375075995922,-0.08171520382165909,-0.03007078915834427,0.02669363096356392,,,,,,
1764808575.239443,,,,,,,0.005552232265472412,-0.0004953742027282715,0.01729661226272583,0.05067761614918709,-0.0893234983086586,0.023588305339217186
1764808575.246481,0.019705986467003823,-0.04072480909824371,-0.12024740475490689,-0.08436581492424011,-0.04043988510966301,0.025267858058214188,,,,,,
1764808575.249473,,,,,,,0.005089879035949707,-0.00897824764251709,0.016245663166046143,0.054337598383426666,-0.08947716653347015,0.022308390587568283
1764808575.256534,-0.03332417745292186,-0.08200023781657219,-0.08349018411338328,-0.08662284165620804,-0.04953191801905632,0.021930649876594543,,,,,,
1764808575.259503,,,,,,,0.0017562806606292725,-0.024535059928894043,0.01988375186920166,0.031718168407678604,-0.08589334785938263,0.02005855366587639
1764808575.266586,-0.08899170413911342,-0.10176058481931685,-0.04848667527139187,-0.09338319301605225,-0.060872871428728104,0.01620219089090824,,,,,,
1764808575.269533,,,,,,,6.720423698425293e-05,-0.03273797035217285,0.023273169994354248,-0.014706587418913841,-0.0797819271683693,0.0006289283046498895
1764808575.276638,-0.14871055204272268,-0.10289514180719851,-0.006900134777277708,-0.09304310381412506,-0.07136865705251694,0.012930497527122498,,,,,,
1764808575.279563,,,,,,,0.0027052760124206543,-0.026064395904541016,0.028146803379058838,-0.05423125624656677,-0.07835020869970322,-0.004955187905579805
1764808575.286691,-0.16988778010606764,-0.05161678999066353,-0.0038267186813056467,-0.08519387990236282,-0.07384826987981796,0.010559608228504658,,,,,,
1764808575.289593,,,,,,,0.006719797849655151,-0.021865785121917725,0.029584825038909912,-0.0700317919254303,-0.08283976465463638,0.0004638123791664839
1764808575.296743,-0.18112462891340256,-0.0020925883650779725,-0.08511340140104293,-0.07822252064943314,-0.07139256596565247,0.011133519001305103,,,,,,
1764808575.299623,,,,,,,0.008393198251724243,-0.021951377391815186,0.028217792510986328,-0.07564520090818405,-0.07798536121845245,-0.0010363461915403605
1764808575.306795,-0.18085516432225704,0.05603635999858379,-0.08536752229258418,-0.07139157503843307,-0.06718138605356216,0.0102739492431283,,,,,,
1764808575.309653,,,,,,,0.007935017347335815,-0.01840001344680786,0.028759479522705078,-0.08662062138319016,-0.07142598927021027,-0.006630582734942436
1764808575.316847,-0.16559095969498155,0.08719839098155498,-0.06031257601305842,-0.06540745496749878,-0.061711788177490234,0.007412382401525974,,,,,,
1764808575.319683,,,,,,,0.010365128517150879,-0.010398566722869873,0.03266429901123047,-0.0729309543967247,-0.06940731406211853,0.006669177673757076
1764808575.3269,-0.13974223268926142,0.08501169459223747,-0.07744739681780338,-0.057012517005205154,-0.05358085036277771,0.0034150637220591307,,,,,,
1764808575.329713,,,,,,,0.015688836574554443,-0.007584214210510254,0.02973276376724243,-0.0367247499525547,-0.06880011409521103,0.0235056821256876
1764808575.336952,-0.13367723356187342,0.08994622838497161,-0.1077367366194725,-0.05060441792011261,-0.042289044708013535,-0.0007237546378746629,,,,,,
1764808575.339743,,,,,,,0.015712738037109375,-0.010926902294158936,0.024325430393218994,-0.01242260355502367,-0.06357365846633911,0.031544364988803864
1764808575.347004,-0.1479167713165283,0.08704992242157458,-0.07669453262388706,-0.05049683153629303,-0.03820674866437912,-0.008732270449399948,,,,,,
1764808575.349773,,,,,,,0.01419144868850708,-0.02023094892501831,0.02663099765777588,0.004829353652894497,-0.05549602583050728,0.0416414774954319
1764808575.357057,-0.16792729368805884,0.05225450337231159,-0.042717005828768015,-0.046858422458171844,-0.03752897307276726,-0.018593689426779747,,,,,,
1764808575.359804,,,,,,,0.013985782861709595,-0.030861258506774902,0.02383565902709961,0.01716332510113716,-0.04960857331752777,0.05502445995807648
1764808575.367109,-0.1775806726962328,0.02099485723376274,-0.019256489133834837,-0.04660036414861679,-0.041527505964040756,-0.02782220020890236,,,,,,
1764808575.369834,,,,,,,0.013373136520385742,-0.04036295413970947,0.017934799194335938,0.01865655928850174,-0.042776234447956085,0.05835980176925659
1764808575.377161,-0.21869068171977996,-0.000301028773188591,0.06582710165083408,-0.050595905631780624,-0.050475459545850754,-0.0428144633769989,,,,,,
1764808575.379864,,,,,,,0.011351346969604492,-0.04462897777557373,0.014426231384277344,-0.006417241878807545,-0.033514559268951416,0.05096180737018585
1764808575.387213,-0.25184300973713397,-0.03727671447098255,0.10812719724178313,-0.05706236883997917,-0.06228368729352951,-0.05617056414484978,,,,,,
1764808575.389894,,,,,,,0.013232827186584473,-0.03782564401626587,0.01582205295562744,-0.03988651931285858,-0.02314101718366146,0.048269618302583694
1764808575.397266,-0.25225685123503205,-0.030894904479384422,0.10977627962306141,-0.05836039409041405,-0.06630053371191025,-0.06531372666358948,,,,,,
1764808575.399924,,,,,,,0.018056720495224,-0.028823137283325195,0.01820683479309082,-0.0655505508184433,-0.020814212039113045,0.05629325658082962
1764808575.407318,-0.20890403172075747,0.04549567676186561,0.04438406225815415,-0.05375761538743973,-0.05619598925113678,-0.06876230239868164,,,,,,
1764808575.409954,,,,,,,0.020312339067459106,-0.026344776153564453,0.021808624267578125,-0.08153405040502548,-0.02241077832877636,0.06287259608507156
1764808575.41737,-0.16724340307712554,0.13737608807981014,-0.03175006000399589,-0.04335983470082283,-0.040165625512599945,-0.06970372796058655,,,,,,
1764808575.419984,,,,,,,0.018790721893310547,-0.02166140079498291,0.021832704544067383,-0.08430098742246628,-0.01928502507507801,0.06965506076812744
1764808575.427422,-0.11921499296724795,0.17915011397004127,-0.06651698361113667,-0.032630518078804016,-0.027493365108966827,-0.07132690399885178,,,,,,
1764808575.430014,,,,,,,0.016694456338882446,-0.0167391300201416,0.020240068435668945,-0.0693686380982399,-0.01807062327861786,0.07627834379673004
1764808575.437475,-0.09363865316212176,0.1522486630409956,-0.05403364187404513,-0.02574331685900688,-0.021942272782325745,-0.07405025511980057,,,,,,
1764808575.440044,,,,,,,0.013111084699630737,-0.011311352252960205,0.016045451164245605,-0.05115443468093872,-0.014897999353706837,0.08460085839033127
1764808575.447527,-0.07465513575077057,0.08686930515766143,0.010726707328110933,-0.025588538497686386,-0.02530301734805107,-0.07999276369810104,,,,,,
1764808575.450074,,,,,,,0.011068910360336304,-0.009563982486724854,0.010835409164428711,-0.031037181615829468,-0.010565035976469517,0.08738865703344345
1764808575.457579,-0.07735504235923289,0.003781272104382515,0.06111074065342545,-0.02964772656559944,-0.027929160743951797,-0.08632895350456238,,,,,,
1764808575.460104,,,,,,,0.010533660650253296,-0.008590757846832275,0.007998228073120117,-0.014316342771053314,-0.0020005765836685896,0.08984342962503433
1764808575.467632,-0.06494330455362797,-0.04128828819990158,0.052669513913989066,-0.03186028078198433,-0.02337116003036499,-0.09384359419345856,,,,,,
1764808575.470134,,,,,,,0.00897100567817688,-0.007055938243865967,0.008580923080444336,-0.0002242260379716754,-0.00026606000028550625,0.09334069490432739
1764808575.477684,-0.06750000329911708,-0.01617722781896591,0.030733138046413658,-0.028457026928663254,-0.014292178675532341,-0.09839440882205963,,,,,,
1764808575.480165,,,,,,,0.006355494260787964,-0.010600447654724121,0.009991884231567383,0.0008950181072577834,-0.001220004167407751,0.09518559277057648
1764808575.487736,-0.06528700342476368,-0.011776947033405304,0.0007078560084104537,-0.022312844172120094,-0.003919636830687523,-0.1014968678355217,,,,,,
1764808575.490195,,,,,,,0.0030232667922973633,-0.013288021087646484,0.012416839599609375,-0.016559340059757233,0.009146616794168949,0.09701438248157501
1764808575.497789,-0.0753027860045433,-0.008695932152867316,-0.009288637349009513,-0.017692526802420616,0.0025731497444212437,-0.1028316468000412,,,,,,
1764808575.500225,,,,,,,-0.0010846257209777832,-0.011978507041931152,0.009843230247497559,-0.030469929799437523,0.016869250684976578,0.09510889649391174
1764808575.507841,-0.05386135404706001,-0.029257658666372297,-0.011218728628754615,-0.01701708883047104,0.002886890433728695,-0.09820543229579926,,,,,,
1764808575.510255,,,,,,,-0.0003708302974700928,-0.011287868022918701,0.006890416145324707,-0.03923652321100235,0.016192808747291565,0.09072773158550262
1764808575.517893,-0.02781272055506706,-0.04252747460603714,-0.010167612140625715,-0.014730764552950859,0.0013340013101696968,-0.09577556699514389,,,,,,
1764808575.520285,,,,,,,0.002717316150665283,-0.0062947869300842285,0.004111050628125668,-0.04014560580253601,0.013491564430296421,0.0816025361418724
1764808575.527945,0.017715689432621,-0.0362070394128561,0.005687251856178045,-0.013155564665794373,-0.005354015156626701,-0.08785589039325714,,,,,,
1764808575.530315,,,,,,,0.0042524635791778564,-0.0014680027961730957,-0.00021898653358221054,-0.04489455372095108,0.009296552278101444,0.07183565944433212
1764808575.537998,0.06126666186749935,-0.03842997615933418,0.05140680050179362,-0.014083143323659897,-0.01743384823203087,-0.07572066783905029,,,,,,
1764808575.540345,,,,,,,0.004499226808547974,0.0016520023345947266,-0.0005967617034912109,-0.056900471448898315,0.011830017901957035,0.07199478894472122
1764808575.54805,0.061596916735172265,-0.02065758810341358,0.08121464039683342,-0.01384739950299263,-0.02477169595658779,-0.06549181044101715,,,,,,
1764808575.550375,,,,,,,0.002942889928817749,0.0021644234657287598,0.00014102645218372345,-0.05740407481789589,0.008214510045945644,0.0705697312951088
1764808575.558102,0.05822364090979099,-0.022636779221892354,0.05838686864748597,-0.010658797807991505,-0.028686808422207832,-0.06044992059469223,,,,,,
1764808575.560405,,,,,,,0.0015642642974853516,-0.002227783203125,-0.0003914833068847656,-0.04847294092178345,0.005081567447632551,0.06322886049747467
1764808575.568155,0.022160978403687477,-0.037891631498932835,0.04189458352997899,-0.010381029918789864,-0.03023410402238369,-0.0565800815820694,,,,,,
1764808575.570435,,,,,,,-0.0008525848388671875,-0.007544577121734619,0.0008120546117424965,-0.040569745004177094,0.0010905542876571417,0.06087968498468399
1764808575.578207,-0.034136662879586215,-0.08934241727292537,0.0341027606099844,-0.014649543911218643,-0.026821797713637352,-0.06008639931678772,,,,,,
1764808575.580465,,,,,,,-0.002818077802658081,-0.010709881782531738,0.0002686968073248863,-0.04252634197473526,-0.0022301410790532827,0.06411003321409225
1764808575.588259,-0.08316869707405566,-0.15915946534276007,0.03691942546591163,-0.019358348101377487,-0.022400561720132828,-0.06517545133829117,,,,,,
1764808575.590495,,,,,,,-0.005664259195327759,-0.013248443603515625,-0.0007072677835822105,-0.041596367955207825,-0.005753236822783947,0.07161296159029007
1764808575.598311,-0.10741174244880676,-0.17940964168906212,0.016135726764798162,-0.023187708109617233,-0.018301688134670258,-0.070530004799366,,,,,,
1764808575.600526,,,,,,,-0.006660163402557373,-0.016463041305541992,-0.0028535127639770508,-0.034054066985845566,-0.0042512137442827225,0.0844547227025032
1764808575.608364,-0.09646657006442547,-0.18325871833264826,0.025267858377844093,-0.029624970629811287,-0.015251940116286278,-0.07628476619720459,,,,,,
1764808575.610556,,,,,,,-0.0056854188442230225,-0.0218275785446167,-0.0023432960733771324,-0.03370172902941704,-0.007403331808745861,0.08633065223693848
1764808575.618416,-0.07862462390363216,-0.18142858029603956,0.05214344421327114,-0.03444502875208855,-0.018430955708026886,-0.08401592075824738,,,,,,
1764808575.620586,,,,,,,-0.007096797227859497,-0.024663090705871582,0.002959609031677246,-0.04217470809817314,-0.004758812487125397,0.08922583609819412
1764808575.628468,-0.0623971272021532,-0.16706103224754332,0.04947992409244179,-0.033438194543123245,-0.026514898985624313,-0.08928083628416061,,,,,,
1764808575.630616,,,,,,,-0.004721522331237793,-0.02301657199859619,0.005522489547729492,-0.04579740762710571,-4.341965541243553e-05,0.10057010501623154
1764808575.638521,-0.03262158214151859,-0.08904548015296458,0.03123056617453694,-0.03033135086297989,-0.03292379900813103,-0.09335946291685104,,,,,,
1764808575.640646,,,,,,,-0.0007196664810180664,-0.020208656787872314,0.0045469980686903,-0.04894289746880531,-0.001885527977719903,0.10273731499910355
1764808575.648573,-0.02479951021373272,-0.027699323308467864,0.029179478863626717,-0.028407109901309013,-0.043395161628723145,-0.09807448834180832,,,,,,
1764808575.650676,,,,,,,0.003341883420944214,-0.015615344047546387,0.006955860182642937,-0.07180027663707733,0.0027795310597866774,0.08971286565065384
1764808575.658625,-0.03474690373241901,0.01776537379324436,0.03602715280130506,-0.024400116875767708,-0.049600593745708466,-0.0981874018907547,,,,,,
1764808575.660706,,,,,,,0.008744359016418457,-0.005968928337097168,0.011247396469116211,-0.09901177883148193,0.004627498798072338,0.09098678827285767
1764808575.668678,-0.022052841854095458,0.07473053907454014,0.021930822909623383,-0.0116804838180542,-0.048351652920246124,-0.09527939558029175,,,,,,
1764808575.670736,,,,,,,0.012823522090911865,-0.004177272319793701,0.012768268585205078,-0.11495692282915115,-0.003835761221125722,0.09970331192016602
1764808575.67873,0.00158639240860939,0.11305120964050293,-0.04414455441385507,0.008817333728075027,-0.055279068648815155,-0.08235295116901398,,,,,,
1764808575.680766,,,,,,,0.010708600282669067,-0.00930643081665039,0.010127424262464046,-0.11976821720600128,0.019681282341480255,0.1006615161895752
1764808575.688782,0.005287585014104843,0.13265139764547348,-0.08995981851890683,0.01091238297522068,-0.058155037462711334,-0.07628417015075684,,,,,,
1764808575.690796,,,,,,,0.0015406608581542969,-0.014762520790100098,0.0031977929174900055,-0.1166592389345169,0.05515805259346962,0.10045618563890457
1764808575.698834,0.008187398108839988,0.06614625060260296,0.008576251295953989,0.004547161981463432,-0.04965183138847351,-0.08812964707612991,,,,,,
1764808575.700826,,,,,,,-0.00323331356048584,-0.0092812180519104,0.01015484519302845,-0.11846145242452621,0.07340282946825027,0.08995048701763153
1764808575.708887,-0.051048634713888166,-0.03521744385361671,0.09603709260597824,0.0015898402780294418,-0.04460855945944786,-0.10746731609106064,,,,,,
1764808575.710856,,,,,,,0.004557102918624878,0.002854764461517334,0.01720869354903698,-0.10291071981191635,0.07221399992704391,0.08488994836807251
1764808575.718939,-0.07128887418806552,-0.021897943553328515,0.09883461437001824,0.007147591095417738,-0.0374465212225914,-0.11456038057804108,,,,,,
1764808575.720887,,,,,,,0.019004017114639282,0.005888819694519043,0.013201713562011719,-0.07552008330821991,0.06092699244618416,0.09510982781648636
1764808575.728991,-0.03781564365327358,0.10058277321159839,0.02525850602760911,0.012326052412390709,-0.018131103366613388,-0.1089458242058754,,,,,,
1764808575.730917,,,,,,,0.021053463220596313,0.0038079023361206055,0.010362505912780762,-0.058223649859428406,0.052002206444740295,0.09140616655349731
1764808575.739044,-0.06439502302110195,0.18800386703312397,-0.027565321665257214,0.015506666153669357,0.011663543060421944,-0.09986338019371033,,,,,,
1764808575.740947,,,,,,,0.01706242561340332,0.007345974445343018,0.009254217147827148,-0.03120069019496441,0.06009155884385109,0.09768795967102051
1764808575.749096,-0.08307868070304393,0.19162088848650455,-0.033680151283740994,0.023570474237203598,0.04264754056930542,-0.09426255524158478,,,,,,
1764808575.750977,,,,,,,0.012833982706069946,0.0056531429290771484,0.010981200262904167,-0.00804424099624157,0.06345459818840027,0.1088641881942749
1764808575.759148,-0.09376724797785281,0.13185644787549972,-0.03934183030724525,0.028977490961551666,0.07036198675632477,-0.0971590131521225,,,,,,
1764808575.761007,,,,,,,0.012119561433792114,0.002226591110229492,0.011450286954641342,0.01839711330831051,0.0646950975060463,0.11509878188371658
1764808575.769201,-0.1001467198818922,0.08737374754846096,0.0003156418204307556,0.028432758525013924,0.08412069827318192,-0.10285225510597229,,,,,,
1764808575.771037,,,,,,,0.011429548263549805,-0.004328250885009766,0.010239005088806152,0.025701897218823433,0.0677550658583641,0.12273193150758743
1764808575.779253,-0.09665069445967674,0.018451017969846724,0.04541735082864761,0.024777570739388466,0.08632340282201767,-0.1125754565000534,,,,,,
1764808575.781067,,,,,,,0.011117517948150635,-0.009309649467468262,0.008170127868652344,0.022882608696818352,0.06856174021959305,0.12362655252218246
1764808575.789305,-0.0932581294119358,-0.011701543709635734,0.07494388956427574,0.0218068677932024,0.08257336169481277,-0.1234407126903534,,,,,,
1764808575.791097,,,,,,,0.012570679187774658,-0.01843208074569702,0.0024682283401489258,0.027277356013655663,0.0671960711479187,0.129797101020813
1764808575.799357,-0.08632219266891479,-0.01163198560476303,0.07784034165814518,0.01710479147732258,0.0796705111861229,-0.13050900399684906,,,,,,
1764808575.801127,,,,,,,0.011997103691101074,-0.026160597801208496,0.0018862485885620117,0.015468468889594078,0.06862911581993103,0.13137395679950714
1764808575.80941,-0.06480594190955162,-0.01150865148603916,0.09523965861797332,0.012780807912349701,0.0725058764219284,-0.13784641027450562,,,,,,
1764808575.811157,,,,,,,0.008663773536682129,-0.025306522846221924,0.003393176943063736,-5.642796168103814e-05,0.07615840435028076,0.1319819539785385
1764808575.819462,-0.0453653283804655,-0.012694061878323554,0.10390680306777357,0.010297410190105438,0.06489057093858719,-0.14315089583396912,,,,,,
1764808575.821187,,,,,,,0.00953739881515503,-0.025118649005889893,0.003461722284555435,-0.0003792031202465296,0.07938775420188904,0.14074136316776276
1764808575.829514,-0.04050444434583187,0.007218260815739631,0.06896890680789947,0.010693693533539772,0.059649258852005005,-0.14896418154239655,,,,,,
1764808575.831217,,,,,,,0.011974692344665527,-0.021358370780944824,0.003125786781311035,0.014875383116304874,0.0761786475777626,0.15210187435150146
1764808575.839567,-0.04930734400451183,0.04599953463077545,0.055914341054111714,0.011473467573523521,0.05354689061641693,-0.14887043833732605,,,,,,
1764808575.841248,,,,,,,0.013569116592407227,-0.012581110000610352,4.291534423828125e-05,0.010517120361328125,0.07424385845661163,0.14322395622730255
1764808575.849619,-0.05438683922588825,0.08804302511215209,0.0729379565693438,0.013018062338232994,0.05100486800074577,-0.14438390731811523,,,,,,
1764808575.851278,,,,,,,0.015438079833984375,-0.008347690105438232,0.0034257154911756516,0.00873946025967598,0.06930343061685562,0.14748820662498474
1764808575.859671,-0.07412497439682483,0.08448328680396079,0.06653013535365462,0.011509913951158524,0.0552653931081295,-0.1468856781721115,,,,,,
1764808575.861308,,,,,,,0.016597092151641846,-0.01708829402923584,0.0015203990042209625,0.029603997245430946,0.058013226836919785,0.15916457772254944
1764808575.869724,-0.06833703864514827,0.09779694188535212,0.03076806322932243,0.008689990267157555,0.05881384387612343,-0.1534678190946579,,,,,,
1764808575.871338,,,,,,,0.019121527671813965,-0.01486271619796753,-0.001971956342458725,0.047349169850349426,0.05282378941774368,0.16161973774433136
1764808575.879776,-0.06926175227463245,0.06864683524668216,0.059954410225152965,0.004506164696067572,0.06053504720330238,-0.15707826614379883,,,,,,
1764808575.881368,,,,,,,0.01863884925842285,-0.010647177696228027,-0.004835367202758789,0.054362982511520386,0.05130632221698761,0.16544917225837708
1764808575.889828,-0.0849187556117773,0.02606032392978668,0.09309285584762692,-0.001800602301955223,0.056094393134117126,-0.16014832258224487,,,,,,
1764808575.891398,,,,,,,0.01516258716583252,-0.017809808254241943,-0.0053720492869615555,0.055927056819200516,0.05064665526151657,0.17666053771972656
1764808575.899881,-0.05873042138814926,-0.03053600803911686,0.1320487555772066,-0.006779648829251528,0.051806703209877014,-0.16608238220214844,,,,,,
1764808575.901428,,,,,,,0.010785400867462158,-0.02757805585861206,-0.003936769440770149,0.04678962007164955,0.05656180530786514,0.18913885951042175
1764808575.909933,-0.0837158095628023,-0.05942191078364849,0.15963234355151654,-0.00908852182328701,0.044748999178409576,-0.17527304589748383,,,,,,
1764808575.911458,,,,,,,0.005528807640075684,-0.02795088291168213,-0.001522894948720932,0.0403309240937233,0.06648127734661102,0.19295570254325867
1764808575.919985,-0.09980009840130806,-0.06485328818261624,0.17030702843144535,-0.01005365140736103,0.04743532836437225,-0.18293842673301697,,,,,,
1764808575.921488,,,,,,,0.0036635398864746094,-0.01965010166168213,-0.00018155574798583984,0.05734243616461754,0.06862938404083252,0.19716402888298035
1764808575.930037,-0.11913549799025058,-0.061010641279816626,0.12590031595006584,-0.009912645444273949,0.06111183017492294,-0.19074317812919617,,,,,,
1764808575.931518,,,,,,,0.003347635269165039,-0.02133125066757202,-0.0005488414317369461,0.0737118199467659,0.06444849073886871,0.21071551740169525
1764808575.94009,-0.15874620836675166,-0.07191255904436111,0.09615326633155345,-0.0179135799407959,0.08037953078746796,-0.20011590421199799,,,,,,
1764808575.941548,,,,,,,0.002239227294921875,-0.02763056755065918,3.505125641822815e-05,0.06415663659572601,0.07397514581680298,0.22093546390533447
1764808575.950142,-0.19025719891786574,-0.11518471453785896,0.1108529689438641,-0.025737915188074112,0.09366335719823837,-0.20969264209270477,,,,,,
1764808575.951578,,,,,,,-0.0015771985054016113,-0.03243750333786011,0.0032106637954711914,0.06884140521287918,0.08445734530687332,0.2165718823671341
1764808575.960194,-0.19872341396808624,-0.1576502298235893,0.09765797180607914,-0.030679143965244293,0.10335912555456161,-0.22214505076408386,,,,,,
1764808575.961609,,,,,,,-0.0038264989852905273,-0.02906268835067749,0.0048983097076416016,0.07078675180673599,0.0945880115032196,0.23336930572986603
1764808575.970247,-0.20933540887534619,-0.11984627660810947,0.04217325434088707,-0.02928512543439865,0.11195825040340424,-0.23145805299282074,,,,,,
1764808575.971639,,,,,,,0.00014418363571166992,-0.02215886116027832,0.005832672119140625,0.08594759553670883,0.0877266451716423,0.23819708824157715
1764808575.980299,-0.1679939291834831,-0.03595978665351868,0.010863339319825171,-0.026347393169999123,0.11450396478176117,-0.23338644206523895,,,,,,
1764808575.981669,,,,,,,0.005847930908203125,-0.01566845178604126,0.005203604698181152,0.0863443911075592,0.08083811402320862,0.23327600955963135
1764808575.990351,-0.07816168256700039,0.04196048837304115,-0.00804112150594592,-0.020021168515086174,0.1083907037973404,-0.2303599864244461,,,,,,
1764808575.991699,,,,,,,0.00994408130645752,-0.013520538806915283,0.008409736678004265,0.08554358780384064,0.07231040298938751,0.24322637915611267
1764808576.000404,-0.024507833790779112,0.03140051591396332,0.0028885610483586786,-0.016068505123257637,0.10202468186616898,-0.2256307452917099,,,,,,
1764808576.001729,,,,,,,0.008465468883514404,-0.015336275100708008,0.008684273809194565,0.07987361401319504,0.06806053221225739,0.2592300772666931
1764808576.010456,-0.006087210959196091,-0.00656476534307003,-0.003370353215932846,-0.01609816402196884,0.09294430911540985,-0.22516588866710663,,,,,,
1764808576.011759,,,,,,,0.002982795238494873,-0.021537303924560547,0.009503006935119629,0.07700565457344055,0.0701708197593689,0.26305702328681946
1764808576.020508,-0.01507365049123764,-0.0685316844344139,0.015203998872637748,-0.02000608667731285,0.07516211271286011,-0.23548483848571777,,,,,,
1764808576.021789,,,,,,,-0.0033754706382751465,-0.024107158184051514,0.009722592309117317,0.061812154948711395,0.07768838852643967,0.26112228631973267
1764808576.030561,-0.0829448251903057,-0.11908932076096534,0.03070245064720511,-0.030848709866404533,0.05198216438293457,-0.24775229394435883,,,,,,
1764808576.03182,,,,,,,-0.0032782554626464844,-0.029084324836730957,0.011077046394348145,0.03886928781867027,0.08021733164787292,0.26286745071411133
1764808576.040613,-0.12272037073969841,-0.1449637667298317,0.03902063552886247,-0.043622829020023346,0.025902893394231796,-0.2567458152770996,,,,,,
1764808576.04185,,,,,,,0.002044200897216797,-0.04074496030807495,0.007956981658935547,0.0017150340136140585,0.07636373490095139,0.2710130214691162
1764808576.050665,-0.15856325301527976,-0.14299334343969822,0.030988574112206697,-0.05145998299121857,-0.004533043131232262,-0.26747646927833557,,,,,,
1764808576.051879,,,,,,,0.0043143630027771,-0.04727029800415039,0.009271744638681412,-0.049897562712430954,0.06802883744239807,0.2685099244117737
1764808576.060718,-0.161084295925498,-0.08851122714579104,-0.02453939797282219,-0.05588189512491226,-0.02871188148856163,-0.2717497944831848,,,,,,
1764808576.061909,,,,,,,0.007960736751556396,-0.039407312870025635,0.011739131063222885,-0.06891240179538727,0.05441449582576752,0.2592191994190216
1764808576.07077,-0.14140695103108883,-0.03117255237698555,-0.0707223263464868,-0.05437021702528,-0.04625430703163147,-0.2676006853580475,,,,,,
1764808576.071939,,,,,,,0.009499430656433105,-0.02837890386581421,0.011064883321523666,-0.08227268606424332,0.039786018431186676,0.24857935309410095
1764808576.081451,-0.08189151674509047,0.020550620597600936,-0.0833012374125421,-0.048569586127996445,-0.06431080400943756,-0.25026750564575195,,,,,,
1764808576.08197,,,,,,,0.0068930983543396,-0.01019209623336792,0.017081616446375847,-0.10318394750356674,0.030807701870799065,0.2393377125263214
1764808576.091503,-0.033175708892941476,0.05089139832556248,-0.08763502883315086,-0.039791274815797806,-0.08306904137134552,-0.23031404614448547,,,,,,
1764808576.092,,,,,,,0.002370476722717285,0.0057637691497802734,0.015643952414393425,-0.11650907248258591,0.02007383294403553,0.22004631161689758
1764808576.101555,0.02022796451449394,0.027615736678242683,-0.08090718188285827,-0.029235605150461197,-0.09922142326831818,-0.20933617651462555,,,,,,
1764808576.102031,,,,,,,-0.0048163533210754395,0.016441941261291504,0.010983703657984734,-0.14158101379871368,0.019370224326848984,0.19732746481895447
1764808576.111608,0.054931613627076145,-0.027243980756402015,-0.0970304875575006,-0.017099495977163315,-0.09727418422698975,-0.19200468063354492,,,,,,
1764808576.112061,,,,,,,-0.01210552453994751,0.026108920574188232,0.01849985495209694,-0.16450923681259155,0.019872231408953667,0.165138378739357
1764808576.12166,0.1227986966729164,-0.06644143415689469,-0.1900016167216003,-0.00043796002864837646,-0.07271157950162888,-0.1787107139825821,,,,,,
1764808576.122091,,,,,,,-0.01983630657196045,0.03619825839996338,0.024540185928344727,-0.19298550486564636,0.021801691502332687,0.13118621706962585
1764808576.131712,0.25775194151997566,-0.08065583747029303,-0.2814244935303926,0.02638459950685501,-0.03994777798652649,-0.1555047184228897,,,,,,
1764808576.132121,,,,,,,-0.030506432056427002,0.059946656227111816,0.030609015375375748,-0.2658168375492096,0.036105263978242874,0.08892104029655457
1764808576.141765,0.45502924833297725,-0.04809504560530185,-0.3405617421537637,0.0628727450966835,-0.016320742666721344,-0.1222916692495346,,,,,,
1764808576.14215,,,,,,,-0.03938186168670654,0.09641510248184204,0.033536314964294434,-0.3393617272377014,0.06624265760183334,0.042688366025686264
1764808576.151817,0.6788029324054717,0.05425064562559127,-0.4021124816596508,0.11947903037071228,-0.01320058386772871,-0.07199574261903763,,,,,,
1764808576.15218,,,,,,,-0.042701005935668945,0.13413560390472412,0.03871774300932884,-0.44485244154930115,0.1104215681552887,-0.0586523711681366
1764808576.161869,1.018058268135786,0.2574187640428543,-0.4449738643951714,0.20880882441997528,-0.024746393784880638,0.012326501309871674,,,,,,
1764808576.16221,,,,,,,-0.04476964473724365,0.21115988492965698,0.05413103476166725,-0.5248696804046631,0.1774245798587799,-0.22644144296646118
1764808576.171922,1.4654682736366986,0.6749351510614157,-0.5260561105839908,0.3423975110054016,-0.03565124049782753,0.15649886429309845,,,,,,
1764808576.17224,,,,,,,-0.034807682037353516,0.33532071113586426,0.0772482231259346,-0.564852237701416,0.2465711534023285,-0.44818127155303955
1764808576.181974,1.992354551434517,1.2907570188969373,-0.6744103965349495,0.512081503868103,-0.006045493297278881,0.37888863682746887,,,,,,
1764808576.182271,,,,,,,-0.013881385326385498,0.49139416217803955,0.08838307857513428,-0.5437479615211487,0.31160634756088257,-0.627996563911438
1764808576.192026,2.4207991597026584,1.8613631959557533,-0.923771818589419,0.6850977540016174,0.08101111650466919,0.6420941352844238,,,,,,
1764808576.192301,,,,,,,0.0061386823654174805,0.5684792995452881,0.07848440110683441,-0.4012441039085388,0.3377783000469208,-0.7705166935920715
1764808576.202079,2.5525959863454104,1.9453911402076483,-1.017127709287405,0.8150687217712402,0.2003520131111145,0.8801124691963196,,,,,,
1764808576.202332,,,,,,,-0.0007680654525756836,0.5214694738388062,0.04610610008239746,-0.2608586549758911,0.3647659718990326,-0.9322532415390015
1764808576.212131,2.396867079973221,1.3567372652828693,-0.8706196357250213,0.875752329826355,0.3151232898235321,1.0276893377304077,,,,,,
1764808576.212362,,,,,,,-0.03820711374282837,0.42901134490966797,0.025317899882793427,-0.19863365590572357,0.4351349472999573,-1.0983659029006958
1764808576.222183,2.0690911696344614,0.3335878114879131,-0.6697393359839916,0.893303394317627,0.4113435745239258,1.0730878114700317,,,,,,
1764808576.222392,,,,,,,-0.08185577392578125,0.36133497953414917,0.0083695650100708,-0.1573817878961563,0.5073713064193726,-1.228875994682312
1764808576.232236,1.8587801937252282,-0.6363555372983217,-0.5576823980778456,0.8934794068336487,0.48394161462783813,1.062620759010315,,,,,,
1764808576.232421,,,,,,,-0.1110876202583313,0.3246702551841736,-0.009230971336364746,-0.05187267065048218,0.5549218058586121,-1.3052273988723755
1764808576.242288,1.8950129521012304,-1.2561340338051319,-0.4597025008410215,0.8926588892936707,0.5310783386230469,1.0544089078903198,,,,,,
1764808576.242451,,,,,,,-0.13586154580116272,0.31691431999206543,-0.015073664486408234,0.07715265452861786,0.6066837906837463,-1.351262092590332
1764808576.25234,2.125833047553897,-1.498672039580345,-0.45460181670114397,0.9070879220962524,0.5621297359466553,1.0921480655670166,,,,,,
1764808576.252481,,,,,,,-0.160625159740448,0.3235883116722107,-0.01560557633638382,0.19366808235645294,0.6612098813056946,-1.3848503828048706
1764808576.262393,2.41706640291512,-1.4561615161091088,-0.524847027055174,0.9446917176246643,0.5833367705345154,1.1696032285690308,,,,,,
1764808576.262512,,,,,,,-0.1827385425567627,0.3148691654205322,-0.018468625843524933,0.3340277373790741,0.7091124653816223,-1.4119746685028076
1764808576.272445,2.5818185736984014,-1.3399223240822553,-0.5615665460348129,0.9945469498634338,0.6006995439529419,1.2680821418762207,,,,,,
1764808576.272542,,,,,,,-0.19785135984420776,0.2994055151939392,-0.019155509769916534,0.5074887275695801,0.7551760673522949,-1.4347572326660156
1764808576.282497,2.586796946632862,-1.29666419711411,-0.5555525464423,1.047105073928833,0.6231438517570496,1.370871663093567,,,,,,
1764808576.282572,,,,,,,-0.20112457871437073,0.2935255765914917,-0.0188746377825737,0.6796359419822693,0.7819264531135559,-1.4923774003982544
1764808576.29255,2.4304548767983913,-1.2712427556097508,-0.5592765354014932,1.0844985246658325,0.6507507562637329,1.459633469581604,,,,,,
1764808576.292602,,,,,,,-0.19676679372787476,0.31274253129959106,-0.02038753032684326,0.8113745450973511,0.8071045279502869,-1.5750536918640137
1764808576.302602,2.224949839866161,-1.2902180897146462,-0.48602995127439497,1.1084226369857788,0.6822725534439087,1.531165361404419,,,,,,
1764808576.302632,,,,,,,-0.18167096376419067,0.3274860978126526,-0.02646375447511673,0.9038082957267761,0.8262696862220764,-1.6354411840438843
1764808576.312654,2.042719295537472,-1.3526128788292406,-0.38038989467322826,1.12343430519104,0.7220516800880432,1.589599370956421,,,,,,
1764808576.312661,,,,,,,-0.15872952342033386,0.3047860860824585,-0.03740585595369339,0.9363771677017212,0.8092901706695557,-1.7132680416107178
1764808576.322692,,,,,,,-0.14963027834892273,0.2731436491012573,-0.0342949777841568,0.8513412475585938,0.7907255291938782,-1.8080414533615112
1764808576.322707,1.9662293455749749,-1.4213187507867813,-0.3847760008029639,1.1252970695495605,0.7665159702301025,1.6401968002319336,,,,,,
1764808576.332722,,,,,,,-0.142880380153656,0.24272418022155762,-0.028893940150737762,0.7475221753120422,0.7992628216743469,-1.8996063470840454
1764808576.332759,2.0156711296141148,-1.5027590166330336,-0.38206031210348007,1.1152915954589844,0.7846230864524841,1.6966042518615723,,,,,,
1764808576.342752,,,,,,,-0.13072946667671204,0.24726098775863647,-0.020415429025888443,0.6165796518325806,0.8165776133537292,-1.991334319114685
1764808576.342811,2.16721135212481,-1.4670476517826319,-0.2964430528335273,1.1113202571868896,0.7742969989776611,1.7718106508255005,,,,,,
1764808576.352782,,,,,,,-0.10785207152366638,0.30433934926986694,-0.01732707768678665,0.582107424736023,0.7993994355201721,-2.0606112480163574
1764808576.352864,2.374848140388727,-1.1974737550437449,-0.29765432831943034,1.1275408267974854,0.7503959536552429,1.8740055561065674,,,,,,
1764808576.362813,,,,,,,-0.08438250422477722,0.32871025800704956,-0.03265821933746338,0.6115233898162842,0.7407047152519226,-2.144683837890625
1764808576.362916,2.5933196263998743,-0.8413377194002271,-0.3951654390007257,1.1538597345352173,0.7205033302307129,1.9939566850662231,,,,,,
1764808576.372843,,,,,,,-0.07442152500152588,0.32414835691452026,-0.026333339512348175,0.6252732872962952,0.7155399918556213,-2.2463011741638184
1764808576.372968,2.678187528607249,-0.6331456353411078,-0.4908889356128871,1.1724903583526611,0.6852550506591797,2.092251777648926,,,,,,
1764808576.382873,,,,,,,-0.07780423760414124,0.3189263939857483,-0.00011670589447021484,0.602789580821991,0.712570309638977,-2.3439342975616455
1764808576.383021,2.679741772311926,-0.6159101306408643,-0.5348877979457378,1.1818476915359497,0.6551886796951294,2.1649725437164307,,,,,,
1764808576.392903,,,,,,,-0.07374629378318787,0.3289222717285156,0.02685057744383812,0.4907613694667816,0.720059871673584,-2.448444128036499
1764808576.393073,2.636463771599531,-0.6197542388483882,-0.6225216577351093,1.1882895231246948,0.623793363571167,2.2101991176605225,,,,,,
1764808576.402932,,,,,,,-0.05562962591648102,0.34615129232406616,0.05842185392975807,0.30877113342285156,0.7414301633834839,-2.564399242401123
1764808576.403125,2.747039531037211,-0.4263967358276248,-0.7339220314286649,1.1968321800231934,0.5653843879699707,2.232050895690918,,,,,,
1764808576.412963,,,,,,,-0.027150049805641174,0.3402710556983948,0.10280013084411621,0.09023957699537277,0.750533401966095,-2.674595832824707
1764808576.413178,3.098587946629524,0.03286152837723493,-0.8848973135329783,1.2516639232635498,0.4286049008369446,2.250169038772583,,,,,,
1764808576.422992,,,,,,,0.006813168525695801,0.33579373359680176,0.13853037357330322,-0.24681836366653442,0.7032154202461243,-2.7969741821289062
1764808576.42323,3.682592534443736,0.48044542914032934,-1.1763039796344936,1.3917083740234375,0.15610255300998688,2.3143887519836426,,,,,,
1764808576.433022,,,,,,,0.02453511953353882,0.33809590339660645,0.1575486660003662,-0.6287087798118591,0.6575243473052979,-2.917827844619751
1764808576.433282,4.119505695849657,0.7253294135197996,-1.3236075874887405,1.5735541582107544,-0.20021815598011017,2.445455312728882,,,,,,
1764808576.443053,,,,,,,-0.0016747713088989258,0.32792025804519653,0.1696544885635376,-0.9821396470069885,0.6849573254585266,-2.995788335800171
1764808576.443335,4.183222673478722,0.6922115722939371,-1.1634157103583216,1.7358839511871338,-0.41939443349838257,2.611536979675293,,,,,,
1764808576.453083,,,,,,,-0.056606896221637726,0.3306540846824646,0.1790839433670044,-1.1945834159851074,0.8056043386459351,-3.077845573425293
1764808576.453387,3.8147085100382565,0.4492573869332671,-1.2187269709527493,1.8364737033843994,-0.3866616189479828,2.7665367126464844,,,,,,
1764808576.463114,,,,,,,-0.09634298831224442,0.38072413206100464,0.17401647567749023,-1.2686283588409424,0.9973013401031494,-3.194869041442871
1764808576.463439,3.145343852585554,0.31192601477801796,-1.3725520895302294,1.8725051879882812,-0.18893946707248688,2.882350444793701,,,,,,
1764808576.473144,,,,,,,-0.08172767609357834,0.48379290103912354,0.17247509956359863,-1.1581932306289673,1.1871713399887085,-3.3092894554138184
1764808576.473492,2.477943773204088,0.44663960565030575,-1.5827172272279857,1.8802093267440796,0.052901118993759155,2.9736318588256836,,,,,,
1764808576.483174,,,,,,,-0.008653182536363602,0.5729338526725769,0.16625963151454926,-0.8924254179000854,1.2807230949401855,-3.366699457168579
1764808576.483544,2.066620395606756,0.7601587348386645,-1.8556307897835969,1.902965784072876,0.26243650913238525,3.097532033920288,,,,,,
1764808576.493203,,,,,,,0.07709841430187225,0.5852402448654175,0.14970016479492188,-0.6307868361473083,1.2530564069747925,-3.4328670501708984
1764808576.493596,1.852669017368555,1.001138697516918,-2.0538874630227686,1.936403512954712,0.42228126525878906,3.2317054271698,,,,,,
1764808576.503233,,,,,,,0.11881905049085617,0.5253689885139465,0.14787936210632324,-0.4570070803165436,1.23686945438385,-3.509517192840576
1764808576.503648,1.6189403409928083,1.0099738189447671,-1.9026234271049498,1.9441330432891846,0.5670464038848877,3.318448781967163,,,,,,
1764808576.513263,,,,,,,0.11458331346511841,0.449846088886261,0.16173255443572998,-0.39533546566963196,1.316604495048523,-3.5591609477996826
1764808576.513701,1.4859253707319497,0.7746626956831664,-1.5973267673388123,1.9316233396530151,0.6950493454933167,3.3484444618225098,,,,,,
1764808576.523293,,,,,,,0.10202844440937042,0.4163241386413574,0.1916191726922989,-0.4567422568798065,1.4309086799621582,-3.6508052349090576
1764808576.523753,1.6718319732248783,0.5571397060358897,-1.4543515440776944,1.9246541261672974,0.7749527096748352,3.37106990814209,,,,,,
1764808576.533324,,,,,,,0.11723543703556061,0.393177330493927,0.2055509090423584,-0.522864043712616,1.5204243659973145,-3.6840882301330566
1764808576.533805,2.2448346900314093,0.6755510910026729,-1.508739552347362,1.92242431640625,0.7635413408279419,3.4408249855041504,,,,,,
1764808576.543354,,,,,,,0.16604605317115784,0.311226487159729,0.19382736086845398,-0.5915343165397644,1.5346049070358276,-3.670494318008423
1764808576.543858,2.8226141197204586,1.0530239291854202,-1.4898578878752886,1.9052727222442627,0.6597433686256409,3.5335395336151123,,,,,,
1764808576.553384,,,,,,,0.19957619905471802,0.2458019256591797,0.1781841665506363,-0.6384634971618652,1.5747973918914795,-3.6428353786468506
1764808576.55391,2.9891619417488573,1.2742853381760417,-1.3241697514161466,1.8838140964508057,0.5139294266700745,3.5966246128082275,,,,,,
1764808576.563415,,,,,,,0.20056834816932678,0.24891072511672974,0.1748037338256836,-0.5658952593803406,1.6541111469268799,-3.5937156677246094
1764808576.563962,2.722179230546951,1.250408788026124,-1.1118050578474998,1.8627207279205322,0.4037027359008789,3.6195316314697266,,,,,,
1764808576.573445,,,,,,,0.1904487907886505,0.3170638084411621,0.18944382667541504,-0.4063687324523926,1.7521604299545288,-3.5972883701324463
1764808576.574015,2.334033899441361,1.216188684646785,-1.0048726233482361,1.8355865478515625,0.3669111430644989,3.62610125541687,,,,,,
1764808576.583474,,,,,,,0.19907230138778687,0.38066357374191284,0.20233573019504547,-0.15724828839302063,1.8619005680084229,-3.5923142433166504
1764808576.584067,2.101214739125967,1.472062265074253,-0.9917641354501247,1.8191213607788086,0.4012235701084137,3.653776168823242,,,,,,
1764808576.593504,,,,,,,0.24734348058700562,0.3609125018119812,0.2056107521057129,-0.06410902738571167,1.9073306322097778,-3.5850937366485596
1764808576.594119,1.8607582157999276,2.018505622387677,-1.1520873838752508,1.8231104612350464,0.4939865171909332,3.685823917388916,,,,,,
1764808576.603534,,,,,,,0.31126806139945984,0.27622562646865845,0.20863592624664307,-0.2052488923072815,1.8895989656448364,-3.6028404235839844
1764808576.604172,1.4407050037801266,2.510288291969895,-1.3988409615188837,1.8567947149276733,0.5903910994529724,3.6952366828918457,,,,,,
1764808576.613564,,,,,,,0.3565007150173187,0.15634119510650635,0.2305760234594345,-0.36406785249710083,1.9360040426254272,-3.4953603744506836
1764808576.614224,1.087393670168519,2.711025091587007,-1.531726606311649,1.8730030059814453,0.6216856241226196,3.6869890689849854,,,,,,
1764808576.623595,,,,,,,0.36098694801330566,0.11768287420272827,0.2625526189804077,-0.4412347674369812,2.0186283588409424,-3.4155216217041016
1764808576.624276,1.0344190358281136,2.6387027826979756,-1.289736297547072,1.8585044145584106,0.6005936861038208,3.6593058109283447,,,,,,
1764808576.633625,,,,,,,0.3374370336532593,0.17998135089874268,0.2748624086380005,-0.35629379749298096,2.071084976196289,-3.385375499725342
1764808576.634329,1.0114239446878432,2.4758310188338157,-1.2347796956092119,1.8237762451171875,0.5463637113571167,3.580869436264038,,,,,,
1764808576.643655,,,,,,,0.3256973624229431,0.2112080454826355,0.26704490184783936,-0.20949262380599976,2.142915964126587,-3.28751277923584
1764808576.644381,0.7616074723422527,2.382063770855963,-1.346069740796089,1.7966375350952148,0.5173013806343079,3.534072160720825,,,,,,
1764808576.653685,,,,,,,0.36362433433532715,0.19516253471374512,0.2571679353713989,-0.01138326432555914,2.1744635105133057,-3.2477710247039795
1764808576.654433,1.104719483500719,2.7165368407458064,-1.5341444811083376,1.7833768129348755,0.49222877621650696,3.53265380859375,,,,,,
1764808576.663714,,,,,,,0.3979223370552063,0.18000441789627075,0.2562607526779175,0.11569657921791077,2.166964054107666,-3.2155654430389404
1764808576.664486,1.3758470394223927,3.2016417861297723,-1.4700439109891652,1.7620278596878052,0.4690109193325043,3.5190484523773193,,,,,,
1764808576.673744,,,,,,,0.418432354927063,0.11265379190444946,0.25226151943206787,-0.019295858219265938,2.111867666244507,-3.1675302982330322
1764808576.674538,0.990883260962367,3.285112973281741,-1.3874521370202302,1.7645183801651,0.47470900416374207,3.4675920009613037,,,,,,
1764808576.683775,,,,,,,0.40613311529159546,0.0579838752746582,0.307376503944397,-0.2085757702589035,2.1949563026428223,-3.090128183364868
1764808576.68459,0.7419201905757188,3.0900936745285987,-1.7850152848124503,1.7820992469787598,0.44744300842285156,3.4272522926330566,,,,,,
1764808576.693805,,,,,,,0.3912286162376404,0.05473524332046509,0.3483085632324219,-0.2844931483268738,2.2698137760162354,-2.9991908073425293
1764808576.694643,0.8770628205150365,3.165277218067646,-1.777298426824808,1.7956962585449219,0.3866899013519287,3.400733470916748,,,,,,
1764808576.703835,,,,,,,0.39512574672698975,0.07844823598861694,0.35027778148651123,-0.30789071321487427,2.2903947830200195,-2.957308053970337
1764808576.704695,0.9748837277978658,3.463898345592618,-1.6274983259797096,1.8188121318817139,0.3215475082397461,3.365280866622925,,,,,,
1764808576.713866,,,,,,,0.4060174822807312,0.10951530933380127,0.35024380683898926,-0.2561473548412323,2.35054087638855,-2.875668525695801
1764808576.714747,0.9097323334515094,3.7129233752995727,-1.6619845329493284,1.835107445716858,0.28386643528938293,3.314751148223877,,,,,,
1764808576.723896,,,,,,,0.43093210458755493,0.09454452991485596,0.3247697353363037,-0.2002028375864029,2.360438585281372,-2.789191961288452
1764808576.7248,0.7519242827177047,3.900368439406156,-1.7833049737632274,1.8462727069854736,0.2831144332885742,3.262209415435791,,,,,,
1764808576.733926,,,,,,,0.4434586763381958,0.06697362661361694,0.2945193648338318,-0.1586388796567917,2.368401050567627,-2.7161900997161865
1764808576.734852,0.48257133525311946,3.8307840310484167,-1.7473007634460924,1.8349395990371704,0.28778746724128723,3.2079885005950928,,,,,,
1764808576.743956,,,,,,,0.4468451738357544,0.049885451793670654,0.27114248275756836,-0.1333947330713272,2.388093948364258,-2.6446118354797363
1764808576.744904,0.19495733943283558,3.6652263891011474,-1.5024585723817347,1.803991436958313,0.2791005074977875,3.1450772285461426,,,,,,
1764808576.753985,,,,,,,0.45616233348846436,0.05360597372055054,0.2724111080169678,-0.0738706886768341,2.3975727558135986,-2.5666892528533936
1764808576.754957,0.01626958227753639,3.6290818935304876,-1.3383458685457705,1.7830421924591064,0.2729310393333435,3.0721185207366943,,,,,,
1764808576.764015,,,,,,,0.46129024028778076,0.05391424894332886,0.2657786011695862,-0.03185100108385086,2.386965036392212,-2.516462564468384
1764808576.765009,-0.1011573582291603,3.646753743821382,-1.4043863206863403,1.7748852968215942,0.28339290618896484,2.9980762004852295,,,,,,
1764808576.774045,,,,,,,0.4526713490486145,0.04340451955795288,0.2851223349571228,-0.03698078170418739,2.4231185913085938,-2.4457826614379883
1764808576.775061,-0.10762217032909392,3.687586689469218,-1.4272446337044238,1.7862775325775146,0.30672964453697205,2.933986186981201,,,,,,
1764808576.784075,,,,,,,0.44784462451934814,0.0031177401542663574,0.2950783967971802,-0.07392279803752899,2.445695400238037,-2.372706890106201
1764808576.785114,-0.06308277137875556,3.820593476423621,-1.4381167408525943,1.8108874559402466,0.3301343619823456,2.8803465366363525,,,,,,
1764808576.794106,,,,,,,0.4545717239379883,-0.01887950301170349,0.32361847162246704,-0.1242581456899643,2.5055909156799316,-2.2846972942352295
1764808576.795166,-0.011975099954009055,3.959674030333757,-1.4659538651965558,1.8216242790222168,0.33716511726379395,2.8308298587799072,,,,,,
1764808576.804137,,,,,,,0.4652857184410095,-0.006992846727371216,0.307552695274353,-0.13614389300346375,2.5198209285736084,-2.210123300552368
1764808576.805218,-0.018422376397252083,4.091336416941881,-1.4951111322283743,1.8291950225830078,0.3208446204662323,2.7810468673706055,,,,,,
1764808576.814167,,,,,,,0.4672386050224304,-0.01759093999862671,0.275410532951355,-0.14607402682304382,2.5034339427948,-2.146737813949585
1764808576.815271,-0.07843056263625621,4.081785913786292,-1.4714004401646554,1.8189208507537842,0.2483513355255127,2.713397979736328,,,,,,
1764808576.824197,,,,,,,0.4646202325820923,-0.041824519634246826,0.267164409160614,-0.13580939173698425,2.477724313735962,-2.0667576789855957
1764808576.825323,-0.18065350427031515,3.9154946968674658,-1.2727812172234059,1.8069860935211182,0.15941986441612244,2.6166014671325684,,,,,,
1764808576.834227,,,,,,,0.46085357666015625,-0.07247504591941833,0.24370181560516357,-0.11170565336942673,2.442335844039917,-1.996227502822876
1764808576.835375,-0.3084843498915434,3.691597094154358,-1.271198185815662,1.7838574647903442,0.10933604836463928,2.5018534660339355,,,,,,
1764808576.844256,,,,,,,0.45583975315093994,-0.07717821002006531,0.22234439849853516,-0.13489609956741333,2.3952715396881104,-1.9482001066207886
1764808576.845428,-0.5062155379518867,3.5488942580938336,-1.3317035079218447,1.7356351613998413,0.08375052362680435,2.3965952396392822,,,,,,
1764808576.854286,,,,,,,0.4637678861618042,-0.06461122632026672,0.2097301483154297,-0.14559508860111237,2.3576650619506836,-1.8583050966262817
1764808576.85548,-0.6715604139313102,3.5824890691816806,-1.2645068714834748,1.676035761833191,0.08791384100914001,2.309994697570801,,,,,,
1764808576.864316,,,,,,,0.48798930644989014,-0.09956949949264526,0.167721688747406,-0.20116370916366577,2.2431468963623047,-1.7720000743865967
1764808576.865532,-0.7807315672680735,3.7859272367119785,-1.265891165448725,1.613200068473816,0.10043629258871078,2.229419231414795,,,,,,
1764808576.874346,,,,,,,0.49248039722442627,-0.13885384798049927,0.17541921138763428,-0.3464106321334839,2.1496903896331787,-1.697714924812317
1764808576.875585,-0.9004702918484806,3.7004531853049993,-1.304297760732472,1.564607858657837,0.0705571398139,2.1300454139709473,,,,,,
1764808576.884377,,,,,,,0.4692927598953247,-0.16484344005584717,0.17976203560829163,-0.422736257314682,2.089428186416626,-1.5935091972351074
1764808576.885637,-0.9336118062108755,3.5233944906562567,-1.2759972566604614,1.5181337594985962,0.02233954891562462,2.014679431915283,,,,,,
1764808576.894407,,,,,,,0.4395664930343628,-0.1654917299747467,0.1828921139240265,-0.4645446836948395,2.000951051712036,-1.512787103652954
1764808576.895689,-0.8845724654927849,3.388274072548747,-1.1892916176319122,1.4823293685913086,-0.03078414499759674,1.8995895385742188,,,,,,
1764808576.904437,,,,,,,0.4166482090950012,-0.13966938853263855,0.15782800316810608,-0.5696012377738953,1.9070725440979004,-1.4643232822418213
1764808576.905742,-0.8274380811244249,3.2310920447587965,-1.232889936339855,1.4427523612976074,-0.07960627973079681,1.8079735040664673,,,,,,
1764808576.914468,,,,,,,0.41901862621307373,-0.13397297263145447,0.17241555452346802,-0.6906373500823975,1.842481017112732,-1.3800342082977295
1764808576.915794,-0.7960562699109316,3.1971149563550947,-1.2269859729930759,1.3903604745864868,-0.09621115028858185,1.7198745012283325,,,,,,
1764808576.924498,,,,,,,0.43207818269729614,-0.13306063413619995,0.175811767578125,-0.8063966631889343,1.7617731094360352,-1.2835129499435425
1764808576.925846,-0.7584706356212496,3.1845822225183245,-1.1033271523594856,1.3660553693771362,-0.12406754493713379,1.615104079246521,,,,,,
1764808576.934527,,,,,,,0.42722904682159424,-0.15533128380775452,0.11390122771263123,-1.026010274887085,1.6790721416473389,-1.2345424890518188
1764808576.935899,-0.8541250125199555,3.1982787394374608,-0.921879867362976,1.3059076070785522,-0.20380158722400665,1.4153023958206177,,,,,,
1764808576.944557,,,,,,,0.4099210500717163,-0.2062855064868927,0.08058547973632812,-1.0412182807922363,1.6132715940475464,-0.9924154281616211
1764808576.945951,-1.550081032039225,2.7767466870367525,-0.5317135518237948,1.2240595817565918,-0.21095111966133118,1.3881559371948242,,,,,,
1764808576.954587,,,,,,,0.4100778102874756,-0.1292719841003418,-0.026165425777435303,-0.7567784190177917,1.487037181854248,-1.0714173316955566
1764808576.956003,-0.36744916455745696,3.096327600482106,-0.2338637009322643,1.0965282917022705,-0.24500548839569092,1.3345105648040771,,,,,,
1764808576.964617,,,,,,,0.3647099733352661,-0.04616624116897583,-0.12450063228607178,-0.6552330255508423,1.3390823602676392,-0.9592975974082947
1764808576.966056,-0.8696303324267267,2.833371076056361,0.49843116768598555,0.9672864675521851,-0.26431524753570557,1.2167197465896606,,,,,,
1764808576.974648,,,,,,,0.3918818235397339,-0.10980159044265747,-0.1449657678604126,-0.5845232009887695,1.2489569187164307,-0.8246891498565674
1764808576.976108,-1.4717255804657936,2.3043623992770907,0.7786331336840987,0.8369489908218384,-0.2551731467247009,1.0952085256576538,,,,,,
1764808576.984678,,,,,,,0.41557157039642334,-0.1512695848941803,-0.18068408966064453,-0.43053895235061646,1.09059739112854,-0.7410274744033813
1764808576.98616,-1.625953142364323,2.1819629310548305,1.0634461006090044,0.6848031878471375,-0.19964583218097687,0.9541077613830566,,,,,,
1764808576.994708,,,,,,,0.4195834994316101,-0.06587982177734375,-0.2214369773864746,-0.23469915986061096,0.8874509930610657,-0.6665167808532715
1764808576.996213,-1.9536746921673416,2.164276467716694,1.2996876365885137,0.5528454780578613,-0.12180189788341522,0.8124089241027832,,,,,,
1764808577.004738,,,,,,,0.41723281145095825,-0.03923121094703674,-0.25634637475013733,-0.11415556073188782,0.6943862438201904,-0.5855379700660706
1764808577.006265,-1.9043086037129162,2.263400858813524,1.2421817885592579,0.4116162955760956,-0.05932909622788429,0.6754312515258789,,,,,,
1764808577.014767,,,,,,,0.41237974166870117,-0.09248751401901245,-0.26600515842437744,-0.07125496864318848,0.5090989470481873,-0.48165184259414673
1764808577.016317,-1.6682973693579435,2.24251998334825,1.3982009100496768,0.2653541564941406,-0.003046912606805563,0.5309659242630005,,,,,,
1764808577.024797,,,,,,,0.40569955110549927,-0.12791529297828674,-0.2595818042755127,-0.09706377238035202,0.3056057095527649,-0.3757190704345703
1764808577.02637,-1.3320008834332226,2.054026286971569,1.5023366995677352,0.1415899246931076,-0.00591517798602581,0.38276201486587524,,,,,,
1764808577.034828,,,,,,,0.3895147442817688,-0.15991774201393127,-0.2615361511707306,-0.17487788200378418,0.12975239753723145,-0.24493388831615448
1764808577.036422,-1.0240911185592412,1.9895354023605585,1.490085705281794,0.023735735565423965,-0.06963396817445755,0.23293577134609222,,,,,,
1764808577.044858,,,,,,,0.3694233298301697,-0.19797343015670776,-0.27194756269454956,-0.21288251876831055,-0.022325823083519936,-0.09981878846883774
1764808577.046474,-0.9410603686511516,2.023929254871607,1.6155553747296332,-0.10644559562206268,-0.12817059457302094,0.07615663856267929,,,,,,
1764808577.054888,,,,,,,0.3786582350730896,-0.1818198263645172,-0.2855304777622223,-0.12615826725959778,-0.19825556874275208,0.05284692719578743
1764808577.056527,-1.12457072365731,2.1059335843414067,1.8140797589942812,-0.24140873551368713,-0.12248528003692627,-0.09153089672327042,,,,,,
1764808577.064918,,,,,,,0.4192734360694885,-0.14473655819892883,-0.3130612373352051,0.005835201125591993,-0.39507755637168884,0.20739588141441345
1764808577.066579,-1.5103595547646282,2.318448792296648,1.9104232872009277,-0.37027618288993835,-0.06198817864060402,-0.2719705402851105,,,,,,
1764808577.074948,,,,,,,0.4607836604118347,-0.1267835795879364,-0.3311496675014496,0.18207786977291107,-0.5824351906776428,0.38398638367652893
1764808577.076631,-1.8856842750027774,2.565774616870284,2.01255533568114,-0.5048185586929321,0.01666055992245674,-0.466607928276062,,,,,,
1764808577.084978,,,,,,,0.48969489336013794,-0.1258011758327484,-0.3454430103302002,0.32849565148353577,-0.7824902534484863,0.5438601970672607
1764808577.086683,-2.0267294069841504,2.7226597075402736,2.1503458497807384,-0.6403289437294006,0.09478609263896942,-0.6743321418762207,,,,,,
1764808577.095008,,,,,,,0.5181773900985718,-0.1389980912208557,-0.34338146448135376,0.4286147952079773,-0.97707200050354,0.7244603633880615
1764808577.096735,-2.019020147781074,2.907795910182595,2.2114406622126697,-0.7827891111373901,0.11015545576810837,-0.8988629579544067,,,,,,
1764808577.105038,,,,,,,0.5510467886924744,-0.1812678575515747,-0.3180013597011566,0.443405419588089,-1.1855584383010864,0.9119617342948914
1764808577.106788,-1.8676257634818554,3.10476868109107,2.1121032128870487,-0.9141887426376343,0.08215508610010147,-1.1360875368118286,,,,,,
1764808577.115068,,,,,,,0.5624104142189026,-0.22494977712631226,-0.2673860788345337,0.43048855662345886,-1.374497652053833,1.1135839223861694
1764808577.116841,-1.690745348009467,3.192371561220288,1.7586057090535758,-1.033516764640808,0.028336862102150917,-1.3737895488739014,,,,,,
1764808577.125098,,,,,,,0.5553756952285767,-0.2634730339050293,-0.2093486189842224,0.4129413366317749,-1.5516008138656616,1.3184884786605835
1764808577.126893,-1.5815671804100273,3.213888396501541,1.3880448422163725,-1.146362543106079,-0.021993665024638176,-1.6005806922912598,,,,,,
1764808577.135128,,,,,,,0.542011559009552,-0.2706347405910492,-0.13984572887420654,0.4135999381542206,-1.6939417123794556,1.525502324104309
1764808577.136945,-1.6683236728429793,3.222405464956164,0.9371940486118197,-1.2336691617965698,-0.03273286297917366,-1.818468451499939,,,,,,
1764808577.145158,,,,,,,0.5334482789039612,-0.26685667037963867,-0.08253598213195801,0.4548264443874359,-1.827793836593628,1.7326281070709229
1764808577.146997,-1.8488553042992948,3.3437919567435976,0.5137149537965655,-1.282055377960205,0.03204846754670143,-2.0281853675842285,,,,,,
1764808577.155189,,,,,,,0.5134220719337463,-0.2625442445278168,-0.045455336570739746,0.5416151285171509,-1.9424580335617065,1.9291210174560547
1764808577.15705,-2.035038385646045,3.331915640988946,0.18936638755798338,-1.3218728303909302,0.10803697258234024,-2.218322515487671,,,,,,
1764808577.165219,,,,,,,0.49315863847732544,-0.23812508583068848,-0.031006336212158203,0.6656414270401001,-2.0207345485687256,2.1207237243652344
1764808577.167102,-2.1659406015366316,3.2774224187791345,0.15406711063981054,-1.383993148803711,0.16011114418506622,-2.400052785873413,,,,,,
1764808577.175249,,,,,,,0.5029774904251099,-0.20564058423042297,-0.04380178451538086,0.805298388004303,-2.112858295440674,2.2838587760925293
1764808577.177155,-2.2814120240613818,3.310575331318378,0.22357962280511856,-1.4643365144729614,0.2028234452009201,-2.583245038986206,,,,,,
1764808577.185279,,,,,,,0.5318822264671326,-0.18005824089050293,-0.0595548152923584,0.973986029624939,-2.200364112854004,2.4649600982666016
1764808577.187207,-2.3431349052637813,3.3417648348301645,0.33793110138922927,-1.5639197826385498,0.23771226406097412,-2.7656333446502686,,,,,,
1764808577.195309,,,,,,,0.570479691028595,-0.17141041159629822,-0.06394147872924805,1.0064244270324707,-2.2950961589813232,2.600609540939331
1764808577.197258,-2.3641885069474577,3.46628085681498,0.5137349736712873,-1.6566119194030762,0.2529841661453247,-2.9423837661743164,,,,,,
1764808577.205339,,,,,,,0.6172441840171814,-0.19247999787330627,-0.041144490242004395,0.8239604830741882,-2.3869872093200684,2.698234796524048
1764808577.207312,-2.3397528616100547,3.816726864123344,0.5562168555699288,-1.729819893836975,0.2510164976119995,-3.1084208488464355,,,,,,
1764808577.215369,,,,,,,0.6559542417526245,-0.26893267035484314,0.015162646770477295,0.5268800854682922,-2.4640731811523438,2.900465965270996
1764808577.217364,-2.149646469339728,4.124933566117287,0.4384136290967464,-1.7537753582000732,0.2530556619167328,-3.2586722373962402,,,,,,
1764808577.225399,,,,,,,0.6364840865135193,-0.3314296007156372,0.06878790259361267,0.2748917043209076,-2.4862053394317627,3.095616340637207
1764808577.227416,-1.870679305833578,4.091308359891176,0.19996143133044242,-1.7495394945144653,0.22408315539360046,-3.397643804550171,,,,,,
1764808577.235429,,,,,,,0.5768024325370789,-0.30235084891319275,0.10636967420578003,0.1258508265018463,-2.52105975151062,3.2207932472229004
1764808577.237468,-1.6825398297220469,3.9389246722936626,0.033494273322820664,-1.7513766288757324,0.1434282511472702,-3.522732734680176,,,,,,
1764808577.245459,,,,,,,0.5455269813537598,-0.24548614025115967,0.1336016058921814,0.10153773427009583,-2.590636968612671,3.3471639156341553
1764808577.24752,-1.620738330325484,3.7613077592402693,-0.3152700645089149,-1.7794060707092285,0.04583458974957466,-3.6519086360931396,,,,,,
1764808577.255489,,,,,,,0.5385987758636475,-0.2008265256881714,0.1230669617652893,0.2533688247203827,-2.614053726196289,3.4843177795410156
1764808577.257573,-1.6614467728108167,3.5286049187809225,-0.6316099502064287,-1.8560398817062378,-0.024606002494692802,-3.7878823280334473,,,,,,
1764808577.265519,,,,,,,0.5550653338432312,-0.1512712836265564,0.11366541683673859,0.5931246280670166,-2.629220962524414,3.629570484161377
1764808577.267626,-1.7905986379027365,3.4959763223767277,-0.519889989169687,-1.9614214897155762,-0.01622636616230011,-3.919536828994751,,,,,,
1764808577.27555,,,,,,,0.5906278491020203,-0.11202168464660645,0.1173449158668518,0.8822800517082214,-2.6514666080474854,3.772367000579834
1764808577.277678,-2.01955936922431,3.627619419762492,-0.2710509835541248,-2.0353848934173584,0.08006657660007477,-4.039478302001953,,,,,,
1764808577.28558,,,,,,,0.6278268098831177,-0.10328465700149536,0.12393422424793243,0.9565096497535706,-2.7370338439941406,3.8444836139678955
1764808577.28773,-2.3871640166044235,3.8816543865859505,-0.3985961441017687,-2.035482168197632,0.20108194649219513,-4.155300617218018,,,,,,
1764808577.29561,,,,,,,0.6299055218696594,-0.150518000125885,0.16961771249771118,0.7774746417999268,-2.8113865852355957,3.9239256381988525
1764808577.297783,-2.5903946788638827,3.899501593443751,-0.7972633076131344,-1.975386142730713,0.27388012409210205,-4.286159992218018,,,,,,
1764808577.30564,,,,,,,0.5841493010520935,-0.17526906728744507,0.23583966493606567,0.35131120681762695,-2.7403724193573,3.995351791381836
1764808577.307835,-2.458717679208517,3.7177877664655443,-1.0843524758417158,-1.8888083696365356,0.28676050901412964,-4.4321208000183105,,,,,,
1764808577.31567,,,,,,,0.5425426959991455,-0.18441170454025269,0.2879669666290283,-0.06734784692525864,-2.671325922012329,4.087446212768555
1764808577.317886,-1.855056204766035,3.7653795387238262,-1.2599743426203727,-1.8152185678482056,0.24523447453975677,-4.559051990509033,,,,,,
1764808577.3257,,,,,,,0.540770411491394,-0.21102279424667358,0.3226251006126404,-0.2824295163154602,-2.643901824951172,4.242539405822754
1764808577.32794,-0.8720581440955399,3.848095231333375,-1.219292861207202,-1.7859214544296265,0.1380089521408081,-4.635848522186279,,,,,,
1764808577.33573,,,,,,,0.5571420788764954,-0.20998221635818481,0.31217920780181885,-0.3153294324874878,-2.6111197471618652,4.376937389373779
1764808577.337991,0.003778349494934082,3.889564721319079,-1.0847159753918647,-1.8001528978347778,-0.031906381249427795,-4.6760430335998535,,,,,,
1764808577.34576,,,,,,,0.581817626953125,-0.17264848947525024,0.29449838399887085,-0.25324127078056335,-2.597240686416626,4.485381126403809
1764808577.348044,0.27946809876561163,3.8512121943101283,-0.9321148456513881,-1.833255410194397,-0.19192561507225037,-4.7252960205078125,,,,,,
1764808577.35579,,,,,,,0.5971961617469788,-0.11286979913711548,0.2740001082420349,-0.07114125043153763,-2.5569992065429688,4.558858394622803
1764808577.358097,-0.10878010819256305,3.5845389874488114,-0.9266963277339935,-1.8661755323410034,-0.29949507117271423,-4.794624328613281,,,,,,
1764808577.36582,,,,,,,0.6037293672561646,-0.00838005542755127,0.30122530460357666,0.26415473222732544,-2.4577789306640625,4.604308128356934
1764808577.368149,-0.8079664879351854,3.4293799899190662,-0.8719231195390224,-1.8943206071853638,-0.29989027976989746,-4.866002082824707,,,,,,
1764808577.37585,,,,,,,0.6135538220405579,0.1390324831008911,0.3545013666152954,0.6876041889190674,-2.3160483837127686,4.658867835998535
1764808577.378201,-1.3491899186432361,3.644816638278961,-0.8630863176107406,-1.8798797130584717,-0.1319955736398697,-4.919418811798096,,,,,,
1764808577.38588,,,,,,,0.6209795475006104,0.2574540376663208,0.3586357831954956,0.8334226012229919,-2.2393014430999756,4.598060607910156
1764808577.388253,-1.6631570838600396,4.140198063005506,-1.1652888107538222,-1.8081316947937012,0.14454227685928345,-4.951663017272949,,,,,,
1764808577.395911,,,,,,,0.6315815448760986,0.2684350609779358,0.35897183418273926,0.658582866191864,-2.2129271030426025,4.531437397003174
1764808577.398306,-1.7179180170953272,4.812642858555913,-1.5937515392005444,-1.7329182624816895,0.38815560936927795,-4.950229167938232,,,,,,
1764808577.405941,,,,,,,0.6611580848693848,0.15109622478485107,0.3405480980873108,0.2805596590042114,-2.224764108657837,4.59699010848999
1764808577.408358,-1.2058563834637404,5.3421425337225195,-1.7932231411874293,-1.7016247510910034,0.49667888879776,-4.894406795501709,,,,,,
1764808577.415971,,,,,,,0.6669310331344604,0.07157450914382935,0.3265489935874939,-0.013167032971978188,-2.234835386276245,4.6668291091918945
1764808577.418411,-0.1134486845254898,5.311479099911451,-1.7924445580303667,-1.733101487159729,0.4799899160861969,-4.822171211242676,,,,,,
1764808577.426001,,,,,,,0.6257159113883972,0.09898489713668823,0.3250924348831177,-0.14780856668949127,-2.2777230739593506,4.665019989013672
1764808577.428463,1.0238274991869927,4.711145893108845,-1.868476827353239,-1.7674559354782104,0.39449962973594666,-4.797781467437744,,,,,,
1764808577.436031,,,,,,,0.5558090209960938,0.17979329824447632,0.33352208137512207,-0.2001684457063675,-2.310293197631836,4.633785724639893
1764808577.438514,1.8396125519186257,3.852164380468428,-2.1611329089939595,-1.811578392982483,0.23451796174049377,-4.828786849975586,,,,,,
1764808577.446061,,,,,,,0.506084144115448,0.2000681757926941,0.33183324337005615,-0.2320507913827896,-2.2456390857696533,4.656526565551758
1764808577.448568,2.37318283752501,3.2056659270793197,-2.175915467584133,-1.89778470993042,9.536987636238337e-05,-4.865188121795654,,,,,,
1764808577.456091,,,,,,,0.5173537731170654,0.20269978046417236,0.34612929821014404,-0.18843886256217957,-2.145728349685669,4.734715461730957
1764808577.45862,2.7106325851380824,3.0324042866259813,-1.8445196131825445,-2.0105578899383545,-0.22763393819332123,-4.874433517456055,,,,,,
1764808577.466121,,,,,,,0.5660632848739624,0.24053829908370972,0.3427610397338867,0.06667816638946533,-2.1022140979766846,4.799325466156006
1764808577.468672,2.7801147021651267,3.166735307921469,-1.4891712207853793,-2.083207130432129,-0.39703938364982605,-4.86439847946167,,,,,,
1764808577.476151,,,,,,,0.5838762521743774,0.3107157349586487,0.3608511686325073,0.30443960428237915,-2.047791004180908,4.8397111892700195
1764808577.478724,2.3893998128324747,3.408477487143874,-1.330198802447319,-2.0789005756378174,-0.49907559156417847,-4.838245868682861,,,,,,
1764808577.486181,,,,,,,0.5613464117050171,0.4128405451774597,0.39631187915802,0.4545619487762451,-1.9366939067840576,4.792099475860596
1764808577.488777,1.7781833929657935,3.7221205349728463,-1.4770610962748527,-2.028085947036743,-0.546775221824646,-4.799490451812744,,,,,,
1764808577.496211,,,,,,,0.5351418256759644,0.4433717727661133,0.36902594566345215,0.564123809337616,-1.7835150957107544,4.779119968414307
1764808577.498829,1.2767325851976872,4.107729333338141,-1.622305433511734,-1.9842873811721802,-0.5313230156898499,-4.745949745178223,,,,,,
1764808577.506241,,,,,,,0.5381375551223755,0.38503843545913696,0.3217962384223938,0.49928006529808044,-1.6990571022033691,4.753898620605469
1764808577.508882,1.0163830283999442,4.387135180522502,-1.6612556341528892,-1.9668986797332764,-0.44958773255348206,-4.7049126625061035,,,,,,
1764808577.516272,,,,,,,0.5470083355903625,0.31339406967163086,0.32446718215942383,0.31429237127304077,-1.6328206062316895,4.752447605133057
1764808577.518934,0.9898726226150989,4.289494598242641,-1.727875932008028,-1.9776251316070557,-0.34152305126190186,-4.699634075164795,,,,,,
1764808577.526302,,,,,,,0.5315267443656921,0.2660799026489258,0.3553699851036072,0.20033977925777435,-1.504284143447876,4.79871129989624
1764808577.528986,1.2344412574350834,3.833392752242088,-1.7359890958368778,-2.0070130825042725,-0.2614313066005707,-4.727297782897949,,,,,,
1764808577.536332,,,,,,,0.506342351436615,0.2766944169998169,0.39069610834121704,0.186768040060997,-1.3649159669876099,4.811652660369873
1764808577.539039,1.615268374481797,3.3960911760404704,-1.8814847774863241,-1.9963428974151611,-0.22167590260505676,-4.7612738609313965,,,,,,
1764808577.546362,,,,,,,0.47907260060310364,0.365339457988739,0.46644628047943115,0.29554808139801025,-1.1712948083877563,4.853953838348389
1764808577.549091,2.0457564712762832,3.382620576831698,-2.1885668593645096,-1.9443929195404053,-0.18586179614067078,-4.761292457580566,,,,,,
1764808577.556392,,,,,,,0.45412036776542664,0.4158320426940918,0.48522770404815674,0.531961977481842,-1.0078973770141602,4.91101598739624
1764808577.559143,2.4617694679945705,3.9263238416567443,-2.362554476004839,-1.8626176118850708,-0.1807253658771515,-4.715308666229248,,,,,,
1764808577.566422,,,,,,,0.452904611825943,0.414173424243927,0.42804551124572754,0.7825310230255127,-0.8905985951423645,4.9156813621521
1764808577.569196,2.7222908742278813,4.498918854445219,-2.4713375068068504,-1.7895798683166504,-0.26508626341819763,-4.636116981506348,,,,,,
1764808577.576452,,,,,,,0.4698100686073303,0.4094170928001404,0.3459917902946472,0.8910849094390869,-0.7493522763252258,4.868416786193848
1764808577.579247,2.800468923407793,4.653635368904471,-2.310867543387413,-1.7492724657058716,-0.42335447669029236,-4.554304599761963,,,,,,
1764808577.586482,,,,,,,0.5108880996704102,0.414354145526886,0.2972351312637329,0.6820852756500244,-0.6839892268180847,4.709724426269531
1764808577.5893,2.6734441334724424,4.455540315967798,-2.053845085185766,-1.7381861209869385,-0.6439840197563171,-4.489899158477783,,,,,,
1764808577.596512,,,,,,,0.5652271509170532,0.3930996060371399,0.3375846743583679,0.2853376865386963,-0.6420111656188965,4.625644207000732
1764808577.599353,2.520992056813836,4.246092094367742,-1.6327461635053158,-1.7305107116699219,-0.8788615465164185,-4.412731170654297,,,,,,
1764808577.606542,,,,,,,0.599299967288971,0.3311372399330139,0.374409019947052,-0.1625976264476776,-0.6772919297218323,4.567364692687988
1764808577.609405,2.5235949327886105,4.138087646722793,-1.4440683427333831,-1.7021795511245728,-1.0861362218856812,-4.309417247772217,,,,,,
1764808577.616572,,,,,,,0.5915943384170532,0.2852455973625183,0.380878210067749,-0.5815656185150146,-0.710939884185791,4.478265285491943
1764808577.619457,2.4900188264012337,4.103837002074719,-1.686982926736027,-1.6819307804107666,-1.2580448389053345,-4.188438892364502,,,,,,
1764808577.626602,,,,,,,0.5496379137039185,0.2691836953163147,0.3903462290763855,-0.8682913780212402,-0.6322600245475769,4.388552665710449
1764808577.629509,2.403612462580204,4.098534804013371,-1.9078782788932322,-1.6681561470031738,-1.3909682035446167,-4.0691752433776855,,,,,,
1764808577.636633,,,,,,,0.5055809020996094,0.296081006526947,0.37347298860549927,-1.0080517530441284,-0.5391982197761536,4.302021026611328
1764808577.639562,2.2868062843203543,4.053070106911659,-2.021001969248056,-1.6472409963607788,-1.5116912126541138,-3.9780492782592773,,,,,,
1764808577.646663,,,,,,,0.492473304271698,0.3349681496620178,0.38144034147262573,-1.0253286361694336,-0.4835624098777771,4.271080017089844
1764808577.649614,2.0974878275573254,3.966647960999608,-1.9149837269842624,-1.63739013671875,-1.6106842756271362,-3.9101786613464355,,,,,,
1764808577.656693,,,,,,,0.5078902244567871,0.3701975345611572,0.3900254964828491,-0.9768377542495728,-0.4049927592277527,4.260615825653076
1764808577.659667,1.8571166444271803,3.9568011052459475,-1.8113818982124328,-1.6366021633148193,-1.663294792175293,-3.858414888381958,,,,,,
1764808577.666723,,,,,,,0.5407848954200745,0.4016832709312439,0.37879031896591187,-0.9815422296524048,-0.4373784065246582,4.225048542022705
1764808577.669719,1.568494348347187,4.05608974699378,-1.9227765728175639,-1.6198546886444092,-1.6843013763427734,-3.817159652709961,,,,,,
1764808577.676753,,,,,,,0.5622214674949646,0.35543835163116455,0.3909519910812378,-1.24282705783844,-0.5681257843971252,4.139808177947998
1764808577.67977,1.2130191146999596,4.118661646240949,-2.053004542708397,-1.592895746231079,-1.688992977142334,-3.7836296558380127,,,,,,
1764808577.686783,,,,,,,0.5600719451904297,0.2093881368637085,0.3853640556335449,-1.5486856698989868,-0.5911338925361633,4.06959867477417
1764808577.689824,0.8671884922325611,4.1051247037976974,-1.9960710877396166,-1.58775794506073,-1.730781078338623,-3.7640583515167236,,,,,,
1764808577.696813,,,,,,,0.5352485179901123,0.08674663305282593,0.40890705585479736,-1.8711339235305786,-0.5348362326622009,3.967667579650879
1764808577.699876,0.6403121659696102,3.95827000875473,-1.7149182507574556,-1.628454327583313,-1.848037600517273,-3.7689313888549805,,,,,,
1764808577.706843,,,,,,,0.5346481204032898,0.13224422931671143,0.4045712947845459,-2.112668514251709,-0.47843608260154724,3.8911266326904297
1764808577.709928,0.5907973166942596,3.9111961228907104,-1.3789748160541058,-1.7156944274902344,-2.0327961444854736,-3.788184881210327,,,,,,
1764808577.716873,,,,,,,0.5969123840332031,0.2510135769844055,0.35038334131240845,-2.239156723022461,-0.573462188243866,3.8324809074401855
1764808577.71998,0.7757713145121932,4.102585540708899,-1.2452853075325487,-1.7898530960083008,-2.24534010887146,-3.7976009845733643,,,,,,
1764808577.726903,,,,,,,0.6558963060379028,0.30692487955093384,0.34190642833709717,-2.3724544048309326,-0.8024804592132568,3.7626469135284424
1764808577.730033,1.0339578480571507,4.172974835708737,-1.4668985987007617,-1.8169313669204712,-2.4115030765533447,-3.7563095092773438,,,,,,
1764808577.736933,,,,,,,0.6462420225143433,0.2881612479686737,0.36521315574645996,-2.435159921646118,-0.9780650734901428,3.6974828243255615
1764808577.740085,1.2646204148605464,4.006098512378335,-1.722713434678316,-1.8227037191390991,-2.517343044281006,-3.671903133392334,,,,,,
1764808577.746963,,,,,,,0.5714871287345886,0.25113770365715027,0.38173264265060425,-2.4185702800750732,-1.0570135116577148,3.6629512310028076
1764808577.750138,1.3668465713649987,3.718322603994608,-1.8029659520447252,-1.8311767578125,-2.5728700160980225,-3.5759458541870117,,,,,,
1764808577.756994,,,,,,,0.4922356605529785,0.23739126324653625,0.3858526945114136,-2.3472464084625244,-1.044004201889038,3.594024419784546
1764808577.76019,1.2704480981007218,3.378033249041438,-1.7902467557251451,-1.8502004146575928,-2.5613856315612793,-3.509347677230835,,,,,,
1764808577.767024,,,,,,,0.43054652214050293,0.26124587655067444,0.4079018831253052,-2.4586517810821533,-0.9646483659744263,3.4272942543029785
1764808577.770241,1.0127300588503478,3.063746350350976,-1.6979146551169455,-1.8915947675704956,-2.5203917026519775,-3.473356008529663,,,,,,
1764808577.777054,,,,,,,0.4190487861633301,0.3335282802581787,0.42217493057250977,-2.620415449142456,-0.8929935693740845,3.3356192111968994
1764808577.780295,0.734575380770862,3.0590017861723897,-1.4494691788636147,-1.926722526550293,-2.477041482925415,-3.459552526473999,,,,,,
1764808577.787084,,,,,,,0.4588158130645752,0.3865528404712677,0.41526341438293457,-2.78316593170166,-0.9146517515182495,3.2746031284332275
1764808577.790346,0.4031846409358084,3.328433059570193,-1.5305391500927508,-1.9187604188919067,-2.444793462753296,-3.435311794281006,,,,,,
1764808577.797114,,,,,,,0.4936867356300354,0.4352913200855255,0.39738744497299194,-2.8841021060943604,-0.9220556020736694,3.227515459060669
1764808577.800399,0.23059169352427122,3.817223707729578,-1.7981775487244127,-1.8948462009429932,-2.406193971633911,-3.355421781539917,,,,,,
1764808577.807144,,,,,,,0.5159204006195068,0.4313630759716034,0.3738479018211365,-2.99483323097229,-0.9605326652526855,3.1540088653564453
1764808577.810452,0.4306777741476893,4.543207493504881,-1.9734733253538608,-1.881711483001709,-2.3387386798858643,-3.2279999256134033,,,,,,
1764808577.817174,,,,,,,0.5365060567855835,0.37728798389434814,0.3644513487815857,-3.1322672367095947,-1.0898702144622803,3.064488649368286
1764808577.820503,0.7589717170111835,4.95224305242598,-2.038723796160519,-1.890847086906433,-2.3177363872528076,-3.1209945678710938,,,,,,
1764808577.827204,,,,,,,0.5508671998977661,0.2707318663597107,0.38527196645736694,-3.2908403873443604,-1.2084877490997314,2.9779727458953857
1764808577.830556,0.9099544517695903,4.665111287164688,-2.032829185163975,-1.9164760112762451,-2.353032350540161,-3.0903360843658447,,,,,,
1764808577.837234,,,,,,,0.5455669164657593,0.1950453221797943,0.41140317916870117,-3.5108120441436768,-1.2906917333602905,2.9481797218322754
1764808577.840609,0.9628386313475668,4.123529544538259,-1.8897581003129482,-1.9514998197555542,-2.436560869216919,-3.127121925354004,,,,,,
1764808577.847264,,,,,,,0.5316625833511353,0.13250109553337097,0.41853588819503784,-3.638781785964966,-1.3903312683105469,2.9252688884735107
1764808577.850661,1.0419750041656195,3.8273973112195727,-1.731988043501973,-1.9564460515975952,-2.5453920364379883,-3.1747987270355225,,,,,,
1764808577.857294,,,,,,,0.5084850192070007,0.12604834139347076,0.4261011481285095,-3.7740142345428467,-1.4206393957138062,2.894514560699463
1764808577.860713,1.0762331745330245,3.6708635182052847,-1.6025842494755982,-1.9288631677627563,-2.6297898292541504,-3.2001914978027344,,,,,,
1764808577.867324,,,,,,,0.49286961555480957,0.20843298733234406,0.4205831289291382,-3.8158910274505615,-1.4604874849319458,2.8987226486206055
1764808577.870766,1.0063318091806024,3.6375200515300032,-1.491366977263987,-1.90113365650177,-2.6792330741882324,-3.164548635482788,,,,,,
1764808577.877355,,,,,,,0.48817557096481323,0.2888776659965515,0.3756057024002075,-3.785959005355835,-1.5320340394973755,2.909550428390503
1764808577.880818,0.9361272961631417,3.632858489459753,-1.298200905162096,-1.8916817903518677,-2.70084547996521,-3.0685837268829346,,,,,,
1764808577.887385,,,,,,,0.4840315580368042,0.32451581954956055,0.3029881715774536,-3.7256524562835693,-1.6137038469314575,2.9053404331207275
1764808577.89087,0.8803995637223124,3.4241911891043184,-1.069184059739113,-1.9197155237197876,-2.713430881500244,-2.9456636905670166,,,,,,
1764808577.897415,,,,,,,0.4792030453681946,0.2946869432926178,0.2515103220939636,-3.5892021656036377,-1.6827913522720337,2.901801109313965
1764808577.900923,0.8395854689054191,3.171655520927906,-0.7466030876949429,-1.9684326648712158,-2.6923229694366455,-2.839047431945801,,,,,,
1764808577.907445,,,,,,,0.46904706954956055,0.23731622099876404,0.23722213506698608,-3.464158535003662,-1.7001460790634155,2.875270366668701
1764808577.910975,0.6813325239483267,2.9401813454806804,-0.4971735688403249,-2.0172669887542725,-2.604295253753662,-2.7754528522491455,,,,,,
1764808577.917475,,,,,,,0.4542059302330017,0.2312081754207611,0.23936715722084045,-3.2972629070281982,-1.6781097650527954,2.8603265285491943
1764808577.921026,0.444935943537578,2.8834359604299067,-0.337801045268774,-2.0400819778442383,-2.4781055450439453,-2.7374765872955322,,,,,,
1764808577.927505,,,,,,,0.44480520486831665,0.2323317527770996,0.21977080404758453,-3.0660364627838135,-1.6852082014083862,2.8633477687835693
1764808577.93108,0.21872231896705924,2.943880199998617,-0.1999465260222554,-2.0436410903930664,-2.365691661834717,-2.7081692218780518,,,,,,
1764808577.937535,,,,,,,0.43243491649627686,0.22646920382976532,0.20895624160766602,-2.8108861446380615,-1.676111102104187,2.8566274642944336
1764808577.941132,-0.015258505538851021,2.834780358332395,-0.10598813938647508,-2.0430266857147217,-2.255791425704956,-2.679070472717285,,,,,,
1764808577.947565,,,,,,,0.40298259258270264,0.24625106155872345,0.21013984084129333,-2.572310209274292,-1.5938040018081665,2.864755630493164
1764808577.951184,-0.2514024263627827,2.643847452110052,-0.07672960393726826,-2.0671699047088623,-2.1051907539367676,-2.6476385593414307,,,,,,
1764808577.957595,,,,,,,0.38127458095550537,0.2686117887496948,0.18812234699726105,-2.24318790435791,-1.4842973947525024,2.8870081901550293
1764808577.961236,-0.3660166475363075,2.714577523371577,-0.08906389259248972,-2.0873966217041016,-1.9032645225524902,-2.6177175045013428,,,,,,
1764808577.967625,,,,,,,0.3831576108932495,0.26456016302108765,0.17002810537815094,-1.9611155986785889,-1.3505409955978394,2.889958381652832
1764808577.971289,-0.3541676581799984,3.0001708270192147,-0.15635785192549229,-2.097838878631592,-1.6671127080917358,-2.5735459327697754,,,,,,
1764808577.977655,,,,,,,0.42690980434417725,0.2397846132516861,0.13891589641571045,-1.5889190435409546,-1.2954905033111572,2.926511764526367
1764808577.981341,-0.2902652409814298,3.510065638005733,-0.21495675588846205,-2.0593128204345703,-1.4220834970474243,-2.504483461380005,,,,,,
1764808577.987685,,,,,,,0.48585277795791626,0.17855411767959595,0.13299918174743652,-1.2778881788253784,-1.2672364711761475,2.8987035751342773
1764808577.991394,-0.3644469140015542,3.966099094945192,-0.12325287018120289,-1.9947975873947144,-1.1990184783935547,-2.4075396060943604,,,,,,
1764808577.997716,,,,,,,0.5020015239715576,0.2042883038520813,0.12388443946838379,-0.9596686363220215,-1.2501903772354126,2.900806188583374
1764808578.001446,-0.6451664741329849,4.159154984670877,0.11599661544263362,-1.9303046464920044,-0.9677780866622925,-2.3155715465545654,,,,,,
1764808578.007746,,,,,,,0.481417179107666,0.21232476830482483,0.0883992612361908,-0.6748915314674377,-1.2595149278640747,2.8841845989227295
1764808578.011497,-0.956574456386268,3.773668059119582,0.2444774494051933,-1.9066293239593506,-0.7704868316650391,-2.2652857303619385,,,,,,
1764808578.017776,,,,,,,0.43115824460983276,0.20502206683158875,0.08209294080734253,-0.49376732110977173,-1.1720309257507324,2.865027666091919
1764808578.021551,-1.2407858041562139,3.091765991654992,0.4673801958620548,-1.9510143995285034,-0.6006495952606201,-2.267890453338623,,,,,,
1764808578.027805,,,,,,,0.38941675424575806,0.17608502507209778,0.06609761714935303,-0.35866478085517883,-1.1018731594085693,2.8882691860198975
1764808578.031603,-1.274550564983487,2.754136211299896,0.5482517219096422,-2.015380382537842,-0.4694744050502777,-2.326117992401123,,,,,,
1764808578.037835,,,,,,,0.37394940853118896,0.12381762266159058,0.06648370623588562,-0.3514249622821808,-1.0758146047592163,2.8864424228668213
1764808578.041655,-1.1029115572959185,2.6496546770840883,0.29046354003250596,-2.0575716495513916,-0.3435039520263672,-2.4160215854644775,,,,,,
1764808578.047865,,,,,,,0.37003087997436523,0.12224432826042175,0.09571629762649536,-0.35479995608329773,-1.0546600818634033,2.919377326965332
1764808578.051708,-0.699369627355039,2.6742443439394235,-0.2458855626374483,-2.0680041313171387,-0.1706255078315735,-2.4813287258148193,,,,,,
1764808578.057895,,,,,,,0.3588292598724365,0.13397055864334106,0.11044171452522278,-0.34068572521209717,-1.0402870178222656,2.9766530990600586
1764808578.06176,-0.11251549532860516,2.8065567188888787,-0.810440184572339,-2.0615570545196533,0.01084362156689167,-2.497220516204834,,,,,,
1764808578.067925,,,,,,,0.34984564781188965,0.17070013284683228,0.11637896299362183,-0.27994024753570557,-1.0374629497528076,3.0339765548706055
1764808578.071812,0.5060442730382084,2.8777818801909683,-1.1306178948670624,-2.0490167140960693,0.14956331253051758,-2.46767520904541,,,,,,
1764808578.077955,,,,,,,0.343410849571228,0.2302401065826416,0.13397926092147827,-0.20324626564979553,-1.0613619089126587,3.065857410430908
1764808578.081865,1.0053098457217216,2.823268199715018,-1.2733826902478933,-2.013308525085449,0.24609863758087158,-2.4232115745544434,,,,,,
1764808578.087985,,,,,,,0.33016324043273926,0.28712382912635803,0.14057409763336182,-0.12600603699684143,-1.098562240600586,3.0536859035491943
1764808578.091917,1.3139952711433172,2.6689415613561867,-1.443605985918641,-1.9646703004837036,0.297426700592041,-2.3842198848724365,,,,,,
1764808578.098015,,,,,,,0.29439306259155273,0.32244443893432617,0.15480577945709229,-0.12405873835086823,-1.0731927156448364,3.0235323905944824
1764808578.101969,1.5758520176336168,2.4433342321157454,-1.3532868325680494,-1.9354360103607178,0.2866118550300598,-2.3510990142822266,,,,,,
1764808578.108045,,,,,,,0.26216596364974976,0.33167004585266113,0.1502555012702942,-0.09950126707553864,-1.0098739862442017,2.9845077991485596
1764808578.112022,1.837715486125648,2.5517151118576527,-1.1232178477436303,-1.8928301334381104,0.2418387085199356,-2.3219001293182373,,,,,,
1764808578.118076,,,,,,,0.254855215549469,0.3058832287788391,0.1448606252670288,-0.1846819519996643,-0.9105582237243652,2.8898470401763916
1764808578.122074,1.9913538499593733,2.753906494197249,-1.0473282017618417,-1.852584958076477,0.17065349221229553,-2.291883945465088,,,,,,
1764808578.128106,,,,,,,0.294312059879303,0.34572380781173706,0.1656275987625122,-0.28469252586364746,-0.8416081666946411,2.808438539505005
1764808578.132126,2.091326382318139,3.1827456547409296,-0.9523457327753305,-1.7901389598846436,0.07072475552558899,-2.2246313095092773,,,,,,
1764808578.138136,,,,,,,0.3602278232574463,0.3499215245246887,0.1754142940044403,-0.41548940539360046,-0.8854454159736633,2.701612710952759
1764808578.142179,2.163606313370168,3.8402369190484285,-0.8962164337962866,-1.702633023262024,-0.03113516978919506,-2.142709255218506,,,,,,
1764808578.148166,,,,,,,0.3926752805709839,0.3709237575531006,0.1889924705028534,-0.5240316987037659,-0.9042198657989502,2.5735204219818115
1764808578.152231,2.0669015506356954,4.152665914912522,-1.01833065533638,-1.6189758777618408,-0.06181851029396057,-2.073726177215576,,,,,,
1764808578.158196,,,,,,,0.37709569931030273,0.442016065120697,0.16283679008483887,-0.5094341039657593,-0.9478691220283508,2.5567777156829834
1764808578.162283,2.0987766983240843,4.006189113271236,-1.349338971725106,-1.5384306907653809,-0.039531707763671875,-2.0099682807922363,,,,,,
1764808578.168226,,,,,,,0.3405739665031433,0.5071576833724976,0.1307227611541748,-0.4598795473575592,-0.997556209564209,2.400336265563965
1764808578.172336,2.2938407130017877,3.3166996594175693,-1.618189230364561,-1.4714332818984985,0.031104112043976784,-1.9184516668319702,,,,,,
1764808578.178256,,,,,,,0.23680704832077026,0.542212724685669,0.12421923875808716,-0.3381720185279846,-0.9529868960380554,2.249709367752075
1764808578.182388,2.580176359449327,2.5166607496112583,-1.7805647351443767,-1.436707854270935,0.13490039110183716,-1.8123074769973755,,,,,,
1764808578.188286,,,,,,,0.14113342761993408,0.559870183467865,0.1230657696723938,-0.2538911700248718,-0.8485051989555359,2.1509788036346436
1764808578.19244,2.929724833396077,1.8801161194816232,-1.8575240561842918,-1.411743402481079,0.22408992052078247,-1.7274549007415771,,,,,,
1764808578.198316,,,,,,,0.07526278495788574,0.6234431862831116,0.130433589220047,-0.1316230744123459,-0.7433098554611206,2.0309042930603027
1764808578.202493,3.309843217651546,1.6257620037063956,-1.9783149201661347,-1.3572542667388916,0.2947864532470703,-1.6429190635681152,,,,,,
1764808578.208346,,,,,,,0.03591877222061157,0.6526892781257629,0.11071738600730896,0.022534891963005066,-0.6775169968605042,1.9252249002456665
1764808578.212545,3.7501027668759224,1.6551035412639379,-2.25792505775094,-1.2938920259475708,0.3444421589374542,-1.5509710311889648,,,,,,
1764808578.218376,,,,,,,0.02795565128326416,0.6760116815567017,0.0941828191280365,0.13616478443145752,-0.6455313563346863,1.8165245056152344
1764808578.222597,4.240078240905702,1.6097373361006377,-2.5265152041494843,-1.2513372898101807,0.3439725935459137,-1.4366002082824707,,,,,,
1764808578.228406,,,,,,,0.0321965217590332,0.7086445093154907,0.11225363612174988,0.20481501519680023,-0.6466740965843201,1.708902359008789
1764808578.23265,4.651292605170608,1.4290207034662366,-2.812339393943548,-1.2128740549087524,0.3393762707710266,-1.3116068840026855,,,,,,
1764808578.238436,,,,,,,0.02357637882232666,0.7215917706489563,0.15821406245231628,0.23322933912277222,-0.639582633972168,1.6204789876937866
1764808578.242702,4.883291096752882,1.3429241362467408,-3.2812779251635074,-1.1587833166122437,0.3714632987976074,-1.206466555595398,,,,,,
1764808578.248467,,,,,,,0.00389707088470459,0.7285310626029968,0.20452874898910522,0.16148197650909424,-0.6022320985794067,1.5070934295654297
1764808578.252754,5.055094939613342,1.4153595501214264,-3.741459149432182,-1.084727168083191,0.3470407724380493,-1.1139190196990967,,,,,,
1764808578.258497,,,,,,,-0.018348276615142822,0.7362445592880249,0.2444731593132019,0.0584552027285099,-0.5701148509979248,1.3704679012298584
1764808578.262806,5.358485181236267,1.6402464561328292,-3.90013755325973,-0.9688235521316528,0.22030773758888245,-1.0128456354141235,,,,,,
1764808578.268527,,,,,,,-0.034647136926651,0.7187740802764893,0.2793892025947571,-0.10675405710935593,-0.5549676418304443,1.215772271156311
1764808578.272859,5.584214091029763,1.6579308736443519,-3.973620722621679,-0.8512253165245056,0.037072133272886276,-0.9289430379867554,,,,,,
1764808578.278557,,,,,,,-0.04939606785774231,0.7372041940689087,0.30408182740211487,-0.31418901681900024,-0.5328263640403748,1.0440967082977295
1764808578.28291,5.70753359670639,1.3988555745661257,-4.057887736326456,-0.7622660994529724,-0.15867525339126587,-0.8544061779975891,,,,,,
1764808578.288587,,,,,,,-0.07564303278923035,0.7721041440963745,0.30782973766326904,-0.5013195276260376,-0.5057926177978516,0.8737921118736267
1764808578.292964,5.885451538532972,1.1222416961878539,-4.208381080132723,-0.6748571991920471,-0.3035942614078522,-0.7470089793205261,,,,,,
1764808578.298617,,,,,,,-0.10521337389945984,0.7961013913154602,0.31712764501571655,-0.6491172909736633,-0.45228198170661926,0.7222180366516113
1764808578.303016,6.074691084840893,1.1061132759466767,-4.5183968773752445,-0.554222047328949,-0.32905372977256775,-0.571698784828186,,,,,,
1764808578.308647,,,,,,,-0.11622646450996399,0.8308278322219849,0.3262466788291931,-0.6925534009933472,-0.37408944964408875,0.5584348440170288
1764808578.313068,6.04390548595488,1.3442527545019984,-4.940570150288939,-0.3791987895965576,-0.23960240185260773,-0.3419918119907379,,,,,,
1764808578.318677,,,,,,,-0.129716157913208,0.8645245432853699,0.3143860101699829,-0.6554779410362244,-0.3420039415359497,0.375728964805603
1764808578.323121,5.726357539641857,1.3672744413882494,-5.0852697131246325,-0.2184554636478424,-0.13270044326782227,-0.13982060551643372,,,,,,
