timestamp,phone_accel_x,phone_accel_y,phone_accel_z,phone_gyro_x,phone_gyro_y,phone_gyro_z,watch_accel_x,watch_accel_y,watch_accel_z,watch_gyro_x,watch_gyro_y,watch_gyro_z
1764808579.197674,-1.4184814815342426,-0.02652618787586689,1.343181033617258,0.5601970553398132,0.525718092918396,0.08549199253320694,,,,,,
1764808579.201325,,,,,,,0.1058053970336914,-0.3382851481437683,-0.042035460472106934,0.8994027972221375,0.5778393745422363,-0.01516454853117466
1764808579.207726,-1.6770222353443502,-0.06274667129218578,1.0703706391751766,0.4533901810646057,0.608881950378418,0.016553137451410294,,,,,,
1764808579.211355,,,,,,,0.11108869314193726,-0.31980395317077637,-0.03634310141205788,0.8181753158569336,0.5163972973823547,0.06358598917722702
1764808579.217778,-1.8304098392874002,-0.024376316365599632,0.8371966740727425,0.34019920229911804,0.7354450821876526,-0.06616111099720001,,,,,,
1764808579.221385,,,,,,,0.10962212085723877,-0.2962578535079956,-0.028410907834768295,0.7536581158638,0.4599052667617798,0.11578181385993958
1764808579.22783,-1.866130264227092,0.07707038019895553,0.7527776846766472,0.23874689638614655,0.8313289880752563,-0.14461037516593933,,,,,,
1764808579.231415,,,,,,,0.1071174144744873,-0.26247769594192505,-0.020055949687957764,0.7306016683578491,0.4122062027454376,0.1796296387910843
1764808579.237883,-1.7840566689133643,0.1887163992166519,0.6630769554853438,0.1737390160560608,0.8840774893760681,-0.2037798911333084,,,,,,
1764808579.241445,,,,,,,0.10279858112335205,-0.2262108325958252,-0.009168267250061035,0.762290358543396,0.36976978182792664,0.24023999273777008
1764808579.247936,-1.6064987925708294,0.2870978629916906,0.5036497791171074,0.14012911915779114,0.9172210693359375,-0.2416290044784546,,,,,,
1764808579.251476,,,,,,,0.09104996919631958,-0.1893966794013977,-0.000991225242614746,0.8159902095794678,0.32047227025032043,0.3129963278770447
1764808579.257987,-1.418704476635158,0.4233721273094415,0.3451519925534725,0.13585832715034485,0.9458085298538208,-0.26642459630966187,,,,,,
1764808579.261506,,,,,,,0.07710111141204834,-0.15579384565353394,0.008531507104635239,0.8538563847541809,0.2761487662792206,0.375582754611969
1764808579.268039,-1.1905158987298607,0.42929274953007696,0.2721265403637662,0.14948412775993347,0.9596612453460693,-0.2826765179634094,,,,,,
1764808579.271536,,,,,,,0.0574910044670105,-0.13549268245697021,0.022827565670013428,0.8750396966934204,0.26024141907691956,0.41698917746543884
1764808579.278093,-0.9221724205687641,0.3326157515853643,0.315376484025456,0.1678791642189026,0.9457666277885437,-0.2846706211566925,,,,,,
1764808579.281566,,,,,,,0.03504866361618042,-0.12641984224319458,0.028094470500946045,0.8694872856140137,0.26667216420173645,0.4475407004356384
1764808579.288145,-0.712902185884118,0.1610591614842415,0.4415221165060997,0.1688418984413147,0.8961790800094604,-0.2785389721393585,,,,,,
1764808579.291596,,,,,,,0.01784384250640869,-0.11376845836639404,0.016791585832834244,0.8383969664573669,0.2811714708805084,0.45012250542640686
1764808579.298197,-0.5458291709378361,0.0028150574207305907,0.5336532511821016,0.15691642463207245,0.8201336860656738,-0.26768162846565247,,,,,,
1764808579.301626,,,,,,,0.010989606380462646,-0.10094159841537476,0.0031501054763793945,0.7870032787322998,0.2895979881286621,0.4381350874900818
1764808579.30825,-0.4534185982659459,-0.10989245334863662,0.6162322022020816,0.13364093005657196,0.7227453589439392,-0.2681266665458679,,,,,,
1764808579.311656,,,,,,,0.012942194938659668,-0.10236245393753052,-0.010232392698526382,0.7329477071762085,0.2874181866645813,0.42843547463417053
1764808579.318301,-0.4142772589668631,-0.16553543011546135,0.6614519846320152,0.10441598296165466,0.6227720975875854,-0.2714460790157318,,,,,,
1764808579.321686,,,,,,,0.022904574871063232,-0.11659961938858032,-0.016161739826202393,0.650719404220581,0.28440403938293457,0.41314786672592163
1764808579.328353,-0.36739977245777844,-0.10075929882228374,0.6743874540507793,0.0766940712928772,0.5411437749862671,-0.2829522490501404,,,,,,
1764808579.331716,,,,,,,0.030334651470184326,-0.12205633521080017,-0.01009095087647438,0.5471154451370239,0.28597742319107056,0.37789186835289
1764808579.338407,-0.37199645259827374,0.04949556005299091,0.621095424324274,0.05892924591898918,0.48887044191360474,-0.292438268661499,,,,,,
1764808579.341746,,,,,,,0.0374491810798645,-0.11547255516052246,-0.0009180903434753418,0.4589932858943939,0.2825688421726227,0.3378959894180298
1764808579.348459,-0.3905208280652761,0.19643851790130137,0.5135983782121911,0.05796890705823898,0.46022042632102966,-0.30245494842529297,,,,,,
1764808579.351776,,,,,,,0.041216373443603516,-0.0947389304637909,0.004470814019441605,0.39306551218032837,0.2736235558986664,0.31892141699790955
1764808579.35851,-0.41252573912441726,0.2962836244881153,0.3709188864946365,0.07021785527467728,0.4508418142795563,-0.30487895011901855,,,,,,
1764808579.361806,,,,,,,0.04113680124282837,-0.0667252242565155,0.00892508402466774,0.3425282835960388,0.2667235732078552,0.31557515263557434
1764808579.368563,-0.3939183615490794,0.3261234669566154,0.24117256264090536,0.08131418377161026,0.45604458451271057,-0.29730546474456787,,,,,,
1764808579.371837,,,,,,,0.036945223808288574,-0.0446493923664093,0.009523633867502213,0.3038998544216156,0.26024091243743896,0.30800092220306396
1764808579.378616,-0.37439065425843,0.2852285619884729,0.17949731997251508,0.08328615128993988,0.47122207283973694,-0.27692002058029175,,,,,,
1764808579.381867,,,,,,,0.03215557336807251,-0.030156463384628296,0.003508392721414566,0.29558253288269043,0.25809332728385925,0.2922014594078064
1764808579.388668,-0.3509557103961706,0.23536592218875885,0.18719898039102553,0.07621385902166367,0.493329256772995,-0.2628220319747925,,,,,,
1764808579.391897,,,,,,,0.030222296714782715,-0.015391021966934204,-0.005427476018667221,0.31820785999298096,0.2461719512939453,0.2922840118408203
1764808579.398721,-0.29215631542503834,0.16915245156884193,0.1807786650199443,0.06430330872535706,0.5075557827949524,-0.255124032497406,,,,,,
1764808579.401927,,,,,,,0.031376421451568604,-0.0002937614917755127,-0.011517342180013657,0.38034048676490784,0.2295951098203659,0.29121875762939453
1764808579.408772,-0.2033563344657421,0.13303133687376975,0.16573533660173415,0.054902881383895874,0.5131273865699768,-0.24150678515434265,,,,,,
1764808579.411957,,,,,,,0.031037569046020508,0.004365652799606323,-0.01828300580382347,0.4461812674999237,0.2106001079082489,0.29004761576652527
1764808579.418824,-0.12473872482478618,0.14509236154556274,0.15218962633013725,0.04521529749035835,0.5102545619010925,-0.2255668342113495,,,,,,
1764808579.421987,,,,,,,0.02746802568435669,0.0035088658332824707,-0.017953213304281235,0.47527840733528137,0.18412110209465027,0.27762797474861145
1764808579.428878,-0.05562631789296865,0.13862462683618068,0.1545055020570755,0.03546519950032234,0.4906771183013916,-0.2214258909225464,,,,,,
1764808579.432017,,,,,,,0.022647976875305176,-0.006736725568771362,-0.010931968688964844,0.4688834249973297,0.17223115265369415,0.2705453038215637
1764808579.43893,-0.01693067653477192,0.10008943673670291,0.17581950824260711,0.027015909552574158,0.4681878387928009,-0.22701528668403625,,,,,,
1764808579.442047,,,,,,,0.018276631832122803,-0.01621374487876892,-0.0058762431144714355,0.43644851446151733,0.16280968487262726,0.2735048830509186
1764808579.448982,0.05751169324815273,0.025989012259244916,0.1665080014746636,0.020207803696393967,0.4327033460140228,-0.23617921769618988,,,,,,
1764808579.452077,,,,,,,0.01567620038986206,-0.022294163703918457,-0.00558137521147728,0.3999120891094208,0.15598294138908386,0.2808099389076233
1764808579.459034,0.14074965616613624,0.008011457020044327,0.14354220949411392,0.011643774807453156,0.38708487153053284,-0.23988419771194458,,,,,,
1764808579.462107,,,,,,,0.013998627662658691,-0.023893684148788452,-0.004954036325216293,0.36843353509902954,0.15019109845161438,0.28672534227371216
1764808579.469086,0.25599048480540515,0.014063596665859221,0.13516381885781883,0.00434644753113389,0.33579108119010925,-0.23777256906032562,,,,,,
1764808579.472137,,,,,,,0.0103837251663208,-0.020737141370773315,-0.007303293794393539,0.3237428367137909,0.13729819655418396,0.2870488464832306
1764808579.47914,0.291520940130949,-0.0015063129097223282,0.11390578064322471,-0.0011764289811253548,0.28013888001441956,-0.2311343252658844,,,,,,
1764808579.482167,,,,,,,0.012665271759033203,-0.021077960729599,-0.009298857301473618,0.26119983196258545,0.11694151908159256,0.28324317932128906
1764808579.489192,0.29569676451086996,-0.03768471074998379,0.10897939362432807,-0.012605324387550354,0.22970075905323029,-0.22731374204158783,,,,,,
1764808579.492197,,,,,,,0.013311445713043213,-0.029476821422576904,-0.010864794254302979,0.20645585656166077,0.09818993508815765,0.2814772427082062
1764808579.499243,0.26055764659047126,-0.05626666162312031,0.11224807656407355,-0.022529592737555504,0.18133960664272308,-0.22409184277057648,,,,,,
1764808579.502227,,,,,,,0.00923234224319458,-0.032913774251937866,-0.012809459120035172,0.16799475252628326,0.08570396900177002,0.281002938747406
1764808579.509296,0.19908990919291972,-0.1252168637305498,0.12826638749428093,-0.03518066555261612,0.1372837871313095,-0.22061949968338013,,,,,,
1764808579.512258,,,,,,,0.003610968589782715,-0.026128768920898438,-0.011793792247772217,0.13699929416179657,0.07880958169698715,0.28526797890663147
1764808579.519349,0.14956979922056196,-0.1243149464547634,0.16080321396179495,-0.051999595016241074,0.10407151281833649,-0.2258121371269226,,,,,,
1764808579.522288,,,,,,,0.00010895729064941406,-0.015773802995681763,-0.009567677974700928,0.1127307116985321,0.07161478698253632,0.2708733379840851
1764808579.529401,0.08846709574311971,-0.1254343058735132,0.12950557390041648,-0.06245628371834755,0.08395377546548843,-0.23342949151992798,,,,,,
1764808579.532318,,,,,,,-0.0006219744682312012,-0.010526955127716064,-0.01664859429001808,0.08958003669977188,0.0628894716501236,0.26621344685554504
1764808579.539454,0.04768588028252124,-0.14045301130712032,0.08728767670020461,-0.07451134920120239,0.08073481172323227,-0.23777736723423004,,,,,,
1764808579.542348,,,,,,,0.004655122756958008,-0.022201120853424072,-0.02071768045425415,0.07660138607025146,0.05040670558810234,0.2803916037082672
1764808579.549505,0.059652212408185,-0.15505729072093963,0.070837111832574,-0.09187063574790955,0.08669809252023697,-0.22780846059322357,,,,,,
1764808579.552378,,,,,,,0.0036385059356689453,-0.02947688102722168,-0.017020288854837418,0.049068551510572433,0.04643140360713005,0.27646124362945557
1764808579.559557,0.0906415171727538,-0.14575345580279828,0.13693250903077422,-0.11124167591333389,0.09332457184791565,-0.21867088973522186,,,,,,
1764808579.562408,,,,,,,-0.0010647773742675781,-0.015337705612182617,-0.00930410623550415,0.03376523032784462,0.04301563650369644,0.2659846246242523
1764808579.569611,0.04131166907548904,-0.10702303539216518,0.10915011054873466,-0.11537490785121918,0.10201653093099594,-0.2152738720178604,,,,,,
1764808579.572438,,,,,,,-0.0010415315628051758,0.001026451587677002,-0.0035522617399692535,0.05222044885158539,0.03389377519488335,0.2691571116447449
1764808579.579663,-0.035924130818247794,-0.08225567388236522,0.006525529311224818,-0.10928399115800858,0.10708505660295486,-0.21341392397880554,,,,,,
1764808579.582468,,,,,,,-0.0010412931442260742,0.01008954644203186,-0.0017205514013767242,0.0723789781332016,0.028361322358250618,0.27933835983276367
1764808579.589715,-0.07254881112128496,-0.022183190235495566,-0.043386867914348835,-0.10076042264699936,0.11831425875425339,-0.20720483362674713,,,,,,
1764808579.592498,,,,,,,-0.0019019842147827148,0.009432613849639893,0.0018188320100307465,0.09385526925325394,0.025282176211476326,0.2746351957321167
1764808579.599767,-0.08285510108023882,0.03593874386548996,-0.029072949749231337,-0.097078338265419,0.1298215091228485,-0.1985096037387848,,,,,,
1764808579.602528,,,,,,,0.00048464536666870117,0.003447920083999634,0.004852473735809326,0.11127953231334686,0.01827433332800865,0.263255774974823
1764808579.609819,-0.0659831689953804,0.025703765577077865,-0.02786415848135948,-0.09457443654537201,0.1405375450849533,-0.1906074732542038,,,,,,
1764808579.612558,,,,,,,0.001699686050415039,0.005734741687774658,0.007468815892934799,0.13263343274593353,0.010636122897267342,0.25794655084609985
1764808579.619872,-0.059389762079715726,-0.030144962894916534,-0.016267244189977645,-0.09030766785144806,0.14484891295433044,-0.1815434694290161,,,,,,
1764808579.622588,,,,,,,-0.000542759895324707,0.012339919805526733,0.007771190255880356,0.16317403316497803,0.00969762448221445,0.2569100260734558
1764808579.629925,-0.05534603964686394,-0.027711598268151283,-0.013999226192757487,-0.08428333699703217,0.1429077386856079,-0.17032970488071442,,,,,,
1764808579.632619,,,,,,,-0.003549814224243164,0.016436517238616943,0.004618290811777115,0.1845667064189911,0.011399917304515839,0.24443799257278442
1764808579.639977,-0.05347878447026014,0.0032756606698036194,-0.009991817182302474,-0.07710815966129303,0.1444360613822937,-0.1548336297273636,,,,,,
1764808579.642649,,,,,,,-0.0049613118171691895,0.010925233364105225,0.00448274239897728,0.1943330615758896,0.011810043826699257,0.2339496612548828
1764808579.650028,-0.044697804382443425,-0.013125439032912254,-0.00748180712275207,-0.07371875643730164,0.1399046927690506,-0.14167575538158417,,,,,,
1764808579.652679,,,,,,,-0.004538774490356445,-0.0009993016719818115,0.007977843284606934,0.19287310540676117,0.01773105002939701,0.21953344345092773
1764808579.660082,-0.06476707120388746,-0.023302549654245375,0.013669628912210463,-0.07289004325866699,0.13424624502658844,-0.13373635709285736,,,,,,
1764808579.662709,,,,,,,-0.0037146806716918945,-0.00524631142616272,0.010966591536998749,0.1503051370382309,0.02344619296491146,0.18844768404960632
1764808579.670134,-0.07629734999984503,-0.0520797313272953,0.016315248050168155,-0.07499207556247711,0.1317918747663498,-0.12858687341213226,,,,,,
1764808579.672739,,,,,,,-0.0006628632545471191,-0.010910242795944214,0.010504066944122314,0.11749466508626938,0.020633095875382423,0.1701469123363495
1764808579.680186,-0.08533025902211666,-0.02890110031366348,0.025079496198892593,-0.0764741599559784,0.12376720458269119,-0.11681928485631943,,,,,,
1764808579.682769,,,,,,,0.003573298454284668,-0.017130643129348755,0.013150282204151154,0.06766053289175034,0.023232607170939445,0.15065230429172516
1764808579.690238,-0.09186872088015079,0.017137012761831282,0.030989012503623962,-0.07378809154033661,0.11395291984081268,-0.10734402388334274,,,,,,
1764808579.692799,,,,,,,0.0011993050575256348,-0.008997291326522827,0.021460894495248795,0.020364174619317055,0.032317981123924255,0.1270715445280075
1764808579.70029,-0.09797112940847873,0.07145721649229526,-0.007401216167211532,-0.05978785455226898,0.10169339179992676,-0.09980689734220505,,,,,,
1764808579.702829,,,,,,,0.0018985867500305176,0.0029142796993255615,0.026947498321533203,0.007589523680508137,0.025499491021037102,0.11046541482210159
1764808579.710342,-0.12066957568973302,0.09136778562068938,-0.10908223294429481,-0.03976673632860184,0.08601855486631393,-0.08959687501192093,,,,,,
1764808579.712859,,,,,,,0.0010430216789245605,0.010581105947494507,0.030364159494638443,0.008513025008141994,0.0200799573212862,0.101981520652771
1764808579.720396,-0.09742518596351146,0.09835048411488533,-0.15185286865644157,-0.022753190249204636,0.0676712840795517,-0.07812788337469101,,,,,,
1764808579.722889,,,,,,,-0.0008562207221984863,0.0125160813331604,0.03425842523574829,0.014155464246869087,0.022090643644332886,0.08803773671388626
1764808579.730448,-0.08261252449601889,0.09848550867140292,-0.16834573829583824,-0.010873360559344292,0.05089017376303673,-0.06430447846651077,,,,,,
1764808579.732919,,,,,,,-0.004713296890258789,0.007970243692398071,0.03712671995162964,0.0267304889857769,0.020925777032971382,0.0689658373594284
1764808579.740499,-0.09673223526328802,0.06490940228402614,-0.1748176377236843,0.004191602114588022,0.03995490446686745,-0.056465040892362595,,,,,,
1764808579.742949,,,,,,,-0.0037514567375183105,0.0018513202667236328,0.0339854396879673,0.0416303426027298,0.026100298389792442,0.05889802426099777
1764808579.750552,-0.09705576812922954,0.046446109354496,-0.18569215602464972,0.012079885229468346,0.03725659102201462,-0.04988357052206993,,,,,,
1764808579.752979,,,,,,,-0.0009524226188659668,-0.004363059997558594,0.029739078134298325,0.06408561766147614,0.028719251975417137,0.05541115254163742
1764808579.760605,-0.15547931552529334,0.053658524951338764,-0.19359949508309363,0.012716859579086304,0.04210518300533295,-0.049032337963581085,,,,,,
1764808579.763009,,,,,,,0.0009191632270812988,-0.01209723949432373,0.02957022562623024,0.051224950700998306,0.030636461451649666,0.04572843015193939
1764808579.770657,-0.17655512904077766,0.04749123449325561,-0.12198745335526763,0.011166632175445557,0.042700666934251785,-0.05266435444355011,,,,,,
1764808579.77304,,,,,,,0.0006361007690429688,-0.01206505298614502,0.031229138374328613,0.02282186970114708,0.0362115241587162,0.027985651046037674
1764808579.78071,-0.22368980518132447,-0.016126958936452863,-0.07384973765201866,0.01019003801047802,0.03959502652287483,-0.060935817658901215,,,,,,
1764808579.78307,,,,,,,-0.0008338093757629395,-0.013955831527709961,0.03165298327803612,-0.004449166357517242,0.044892363250255585,0.03307947888970375
1764808579.790761,-0.240016962864995,-0.03068330755531788,-0.12038805533461272,0.009882975369691849,0.03974895924329758,-0.06859453022480011,,,,,,
1764808579.7931,,,,,,,-0.0011020898818969727,-0.022438108921051025,0.029331747442483902,-0.02183361165225506,0.05309676378965378,0.042430438101291656
1764808579.800813,-0.2069870921835303,-0.005084755918383598,-0.1613455041449517,0.008735468611121178,0.04174782335758209,-0.07734827697277069,,,,,,
1764808579.80313,,,,,,,-0.001172780990600586,-0.026220053434371948,0.030135277658700943,-0.029042256996035576,0.06170782819390297,0.0449572429060936
1764808579.810867,-0.15299714332073927,0.02057575503885746,-0.18230061389021573,0.015283381566405296,0.03997708857059479,-0.08098375797271729,,,,,,
1764808579.81316,,,,,,,-0.0020155906677246094,-0.024844974279403687,0.03360294923186302,-0.03059430792927742,0.06691910326480865,0.045546866953372955
1764808579.820919,-0.11604425397664307,0.03975976345837116,-0.19666355882883071,0.02546640858054161,0.03372972086071968,-0.08418619632720947,,,,,,
1764808579.82319,,,,,,,0.0014002323150634766,-0.021433323621749878,0.03278636932373047,-0.01602628454566002,0.0637238398194313,0.05551135167479515
1764808579.830971,-0.11160802509486675,0.04098141420781612,-0.2120588424898684,0.03827141970396042,0.02380119077861309,-0.08818279951810837,,,,,,
1764808579.83322,,,,,,,0.001149296760559082,-0.017298847436904907,0.030998948961496353,0.0010761227458715439,0.06454809010028839,0.06531485170125961
1764808579.841023,-0.13646218810528515,0.014050737184286117,-0.18479557251110673,0.04674027860164642,0.020493872463703156,-0.08953770995140076,,,,,,
1764808579.84325,,,,,,,-0.003780663013458252,-0.01730683445930481,0.027768254280090332,0.012811075896024704,0.07319430261850357,0.06653377413749695
1764808579.851075,-0.16715367896705866,-0.014397943186759948,-0.13067103748321532,0.053129468113183975,0.021691497415304184,-0.09321100264787674,,,,,,
1764808579.85328,,,,,,,-0.007799386978149414,-0.023560374975204468,0.02161794900894165,0.02697775699198246,0.08361152559518814,0.06885691732168198
1764808579.861128,-0.21243980463147163,-0.06286942088901996,-0.08133519803658128,0.05114082247018814,0.03088071383535862,-0.098114974796772,,,,,,
1764808579.86331,,,,,,,-0.009047269821166992,-0.023756951093673706,0.017770294100046158,0.031350668519735336,0.09853934496641159,0.07250997424125671
1764808579.871181,-0.26718290994912386,-0.08143617419302462,-0.03575060088224709,0.04589464142918587,0.043931618332862854,-0.10753369331359863,,,,,,
1764808579.87334,,,,,,,-0.00790172815322876,-0.01879546046257019,0.017001867294311523,0.0387280210852623,0.1106354221701622,0.07979471981525421
1764808579.881233,-0.302373465795815,-0.05153378788232803,-0.03414323875084519,0.04392017424106598,0.06004667282104492,-0.11866676807403564,,,,,,
1764808579.88337,,,,,,,-0.002637326717376709,-0.017881274223327637,0.01554226502776146,0.0488261952996254,0.1151777058839798,0.09080689400434494
1764808579.891284,-0.31762627224624157,-0.020135610055923462,-0.0883259337067604,0.04029664397239685,0.07855959236621857,-0.12613560259342194,,,,,,
1764808579.893401,,,,,,,0.00463181734085083,-0.020566672086715698,0.014120817184448242,0.05377168580889702,0.11929282546043396,0.10470007359981537
1764808579.901338,-0.2763888374507427,0.0466898549824953,-0.11187398255467414,0.03633705526590347,0.09856551885604858,-0.13410484790802002,,,,,,
1764808579.903431,,,,,,,0.010013341903686523,-0.026613235473632812,0.01231253333389759,0.05986180156469345,0.11601980030536652,0.11724595725536346
1764808579.91139,-0.2242179207086563,0.06662906568348408,-0.11195581561923026,0.03200676292181015,0.11446678638458252,-0.1426553577184677,,,,,,
1764808579.913461,,,,,,,0.012656152248382568,-0.02921333909034729,0.015209674835205078,0.06554605811834335,0.11547970771789551,0.12589244544506073
1764808579.921442,-0.1735606233999133,0.08180909915864468,-0.12007241351418196,0.028234660625457764,0.11750279366970062,-0.153452068567276,,,,,,
1764808579.923491,,,,,,,0.014155566692352295,-0.031895995140075684,0.014755668118596077,0.07966133952140808,0.11364452540874481,0.14035819470882416
1764808579.931494,-0.13059621868133545,0.08908288955390453,-0.1109913545012474,0.02814890630543232,0.1017477959394455,-0.16205382347106934,,,,,,
1764808579.933521,,,,,,,0.012898027896881104,-0.03231152892112732,0.01101398654282093,0.08043579012155533,0.10614719241857529,0.14265570044517517
1764808579.941546,-0.11739303823709488,0.08394611118733883,-0.04646130692362785,0.028587795794010162,0.07283918559551239,-0.164357990026474,,,,,,
1764808579.943551,,,,,,,0.01015859842300415,-0.02940279245376587,0.010956527665257454,0.05919867381453514,0.10267923027276993,0.14376011490821838
1764808579.951598,-0.10703618713468313,0.029356442865729332,-0.01563121130876243,0.03057110868394375,0.04067162051796913,-0.16769394278526306,,,,,,
1764808579.953581,,,,,,,0.004450082778930664,-0.030334293842315674,0.013765992596745491,0.03151911124587059,0.10375434905290604,0.1457154005765915
1764808579.961652,-0.14684884982407093,-0.013371522748470305,0.009742810857295989,0.03081505373120308,0.015190228819847107,-0.17232997715473175,,,,,,
1764808579.963611,,,,,,,0.0018697381019592285,-0.03360602259635925,0.013731300830841064,-0.012806275859475136,0.10602708905935287,0.14747868478298187
1764808579.971704,-0.1759396274909377,-0.02122574338018894,-0.015609072542190551,0.024859173223376274,-0.009727777913212776,-0.1814817190170288,,,,,,
1764808579.973641,,,,,,,-0.0014503002166748047,-0.0375291109085083,0.01536417193710804,-0.059186384081840515,0.10925909876823425,0.1492532193660736
1764808579.981755,-0.19546470443308353,-0.03253507290184498,-0.03992401410937309,0.015406016260385513,-0.030581127852201462,-0.1977704018354416,,,,,,
1764808579.983671,,,,,,,-7.76052474975586e-05,-0.04031166434288025,0.015197457745671272,-0.09300746023654938,0.10476341843605042,0.1572171449661255
1764808579.991808,-0.17836422428935766,-0.04207330109775066,-0.08455335636548697,0.007917037233710289,-0.04396452009677887,-0.21679401397705078,,,,,,
1764808579.993701,,,,,,,0.002650618553161621,-0.03773218393325806,0.014272330328822136,-0.110809825360775,0.08674207329750061,0.159610316157341
1764808580.001861,-0.14336013092547653,-0.0927092633575201,-0.1782733311355114,0.010004156269133091,-0.05465764179825783,-0.22582532465457916,,,,,,
1764808580.003731,,,,,,,-0.0014933943748474121,-0.0294170081615448,0.014340819790959358,-0.10490213334560394,0.08435215055942535,0.16291184723377228
1764808580.011913,-0.05243628968000412,-0.09889993469119071,-0.1791326513785869,0.018474429845809937,-0.06665465235710144,-0.20890969038009644,,,,,,
1764808580.013761,,,,,,,-0.011186838150024414,-0.01752534508705139,0.017361996695399284,-0.10748157650232315,0.09511691331863403,0.16361385583877563
1764808580.021966,-0.019537936423718927,-0.049530046844482416,-0.13111410507559776,0.032292772084474564,-0.07883648574352264,-0.18995384871959686,,,,,,
1764808580.023792,,,,,,,-0.01907980442047119,-0.004782259464263916,0.021218957379460335,-0.09987211972475052,0.09870445728302002,0.16492626070976257
1764808580.032017,-0.10988134743273258,-0.07005085682570934,-0.10988193195462226,0.05323239043354988,-0.08133231103420258,-0.1859387755393982,,,,,,
1764808580.033822,,,,,,,-0.021942317485809326,0.0014691054821014404,0.01743900775909424,-0.08015508204698563,0.11025352030992508,0.16017644107341766
1764808580.042069,-0.21567162615954874,-0.10177052169144153,-0.1266810910642147,0.06657349318265915,-0.0670686811208725,-0.1900288611650467,,,,,,
1764808580.043852,,,,,,,-0.022099196910858154,0.006065011024475098,0.015484392642974854,-0.051505330950021744,0.1292293518781662,0.14958824217319489
1764808580.052123,-0.28079291762858627,-0.10956453656852244,-0.12086743634939193,0.07621999830007553,-0.033075567334890366,-0.19120649993419647,,,,,,
1764808580.053882,,,,,,,-0.023194968700408936,0.005448430776596069,0.015217602252960205,-0.020076964050531387,0.14544108510017395,0.13455204665660858
1764808580.062175,-0.30611849754303694,-0.08633797475993633,-0.0983949077785015,0.08346529304981232,0.017169903963804245,-0.18531158566474915,,,,,,
1764808580.063911,,,,,,,-0.020259976387023926,0.0035186707973480225,0.013330996967852116,-0.0077808815985918045,0.16144295036792755,0.11324995011091232
1764808580.072227,-0.32778497042804955,-0.0592863017052412,-0.0840950912039727,0.09058764576911926,0.07201371341943741,-0.1739012748003006,,,,,,
1764808580.073941,,,,,,,-0.016419529914855957,0.007060587406158447,0.013796389102935791,0.006355671677738428,0.17784589529037476,0.10097863525152206
1764808580.082279,-0.3380859996899962,-0.02880699228942394,-0.06971833693571389,0.10262506455183029,0.125367671251297,-0.16622164845466614,,,,,,
1764808580.083972,,,,,,,-0.009651541709899902,0.01171422004699707,0.012860298156738281,0.039586860686540604,0.19684036076068878,0.10176826268434525
1764808580.092331,-0.35443829181492326,0.045156069543957705,-0.11287592613883315,0.11648735404014587,0.1837119311094284,-0.16248975694179535,,,,,,
1764808580.094001,,,,,,,-0.00515216588973999,0.017255932092666626,0.009821772575378418,0.08861173689365387,0.21220599114894867,0.10241913795471191
1764808580.102384,-0.3236895178079605,0.1211649579912424,-0.12483641304560004,0.12461928278207779,0.23248103260993958,-0.16534282267093658,,,,,,
1764808580.104032,,,,,,,0.0017482638359069824,0.020987659692764282,0.00868833065032959,0.13294830918312073,0.2254413664340973,0.10060685873031616
1764808580.112437,-0.2389192307561636,0.1699813036084175,-0.09284202289171517,0.13015279173851013,0.2650003433227539,-0.1692611277103424,,,,,,
1764808580.114062,,,,,,,0.008112013339996338,0.020849168300628662,0.007794737815856934,0.16962482035160065,0.23033945262432098,0.09892227500677109
1764808580.122488,-0.15958587406128644,0.20586802502572535,-0.07712306023426353,0.13610924780368805,0.2813219130039215,-0.16974346339702606,,,,,,
1764808580.124092,,,,,,,0.017553985118865967,0.015154123306274414,0.007628321647644043,0.19127391278743744,0.2301567643880844,0.10064267367124557
1764808580.13254,-0.046073184388875955,0.22780162441432475,-0.05917575400285423,0.14652858674526215,0.28028541803359985,-0.1685250699520111,,,,,,
1764808580.134122,,,,,,,0.023019015789031982,0.0049763023853302,0.006064057350158691,0.20146667957305908,0.23363272845745087,0.10071445256471634
1764808580.142594,0.06454670645147562,0.2558423085063696,0.014224997772648929,0.16062791645526886,0.2590484917163849,-0.15794336795806885,,,,,,
1764808580.144151,,,,,,,0.024957597255706787,-0.0068509578704833984,0.0027660122141242027,0.18952453136444092,0.24647821485996246,0.08946046233177185
1764808580.152646,0.14959931757599115,0.31000995202362536,0.16514606547169386,0.18029403686523438,0.21398115158081055,-0.14595675468444824,,,,,,
1764808580.154182,,,,,,,0.024431824684143066,-0.012550711631774902,-0.0036327848210930824,0.1659400761127472,0.24601829051971436,0.06990919262170792
1764808580.162698,0.16549714393168688,0.2600362530648708,0.24996954401545224,0.2079211175441742,0.15916764736175537,-0.13672271370887756,,,,,,
1764808580.164212,,,,,,,0.022540271282196045,-0.013909518718719482,-0.011859416961669922,0.14853020012378693,0.24396206438541412,0.05109396576881409
1764808580.17275,0.09185352331101894,0.11687982801795005,0.32789800234846767,0.2213410586118698,0.1095457598567009,-0.12556593120098114,,,,,,
1764808580.174242,,,,,,,0.013545751571655273,-0.013904482126235962,-0.02061605267226696,0.13248896598815918,0.2504958510398865,0.035877928137779236
1764808580.182802,-0.01245586920827627,0.005810732105374336,0.392805724132061,0.2270943522453308,0.08461492508649826,-0.12125696986913681,,,,,,
1764808580.184273,,,,,,,0.0008709430694580078,-0.014576464891433716,-0.024509072303771973,0.10718388855457306,0.2605445086956024,0.016126861795783043
1764808580.192855,-0.09999795906096696,-0.08605915781855583,0.3982815251946449,0.22900277376174927,0.08667301386594772,-0.12298350036144257,,,,,,
1764808580.194303,,,,,,,-0.005742847919464111,-0.020093083381652832,-0.028736470267176628,0.09543135017156601,0.27354976534843445,0.0018874050583690405
1764808580.202908,-0.12415186484754084,-0.15338789620399473,0.3805319334924221,0.2290269285440445,0.1068018451333046,-0.1241186112165451,,,,,,
1764808580.204333,,,,,,,-0.008996069431304932,-0.024648308753967285,-0.03389096260070801,0.09498260915279388,0.28191104531288147,-0.006950561888515949
1764808580.21296,-0.17127368150651454,-0.17857786704003809,0.3487784394223243,0.22636669874191284,0.13763192296028137,-0.12124373018741608,,,,,,
1764808580.214363,,,,,,,-0.009030640125274658,-0.017793208360671997,-0.04066300392150879,0.10791537910699844,0.28223729133605957,-0.009911397472023964
1764808580.223011,-0.164478614538908,-0.18065993401110172,0.3152349566629156,0.22037816047668457,0.1726720631122589,-0.11550942063331604,,,,,,
1764808580.224393,,,,,,,-0.005353689193725586,-0.014142811298370361,-0.04353499412536621,0.12783555686473846,0.2780079245567322,-0.0070469011552631855
1764808580.233064,-0.14264642969816924,-0.16722411385476588,0.3087071257967502,0.21260838210582733,0.20561324059963226,-0.10944566875696182,,,,,,
1764808580.234422,,,,,,,-0.0003573298454284668,-0.013667821884155273,-0.04720937833189964,0.1466231644153595,0.2740531265735626,-0.0005076422821730375
1764808580.243117,-0.12123100896477698,-0.14469897831380366,0.3259702491562813,0.20069429278373718,0.22868099808692932,-0.10495315492153168,,,,,,
1764808580.244452,,,,,,,0.004633188247680664,-0.014136910438537598,-0.04950844869017601,0.16138239204883575,0.2725212574005127,0.005789668299257755
1764808580.253169,-0.05317249500006437,-0.09038345075845718,0.40454515216667203,0.19347499310970306,0.2382902055978775,-0.09908541291952133,,,,,,
1764808580.254483,,,,,,,0.011708557605743408,-0.01865178346633911,-0.055343147367239,0.19571369886398315,0.2665022611618042,0.014770646579563618
1764808580.263222,0.002447393152117729,-0.03617372166514397,0.46032041354365644,0.18917585909366608,0.23493368923664093,-0.09502813220024109,,,,,,
1764808580.264513,,,,,,,0.01788872480392456,-0.024450838565826416,-0.059466004371643066,0.22487744688987732,0.2481520175933838,0.018522242084145546
1764808580.273273,-0.002141395942866802,-0.065922378718853,0.4593313294410705,0.1852857768535614,0.22277449071407318,-0.09474077820777893,,,,,,
1764808580.274543,,,,,,,0.018715322017669678,-0.025715291500091553,-0.06129097938537598,0.25240591168403625,0.22055447101593018,0.01619250886142254
1764808580.283325,-0.01293342359215021,-0.1196878711760044,0.46816228615045546,0.17217282950878143,0.21810343861579895,-0.09470251947641373,,,,,,
1764808580.284574,,,,,,,0.012208759784698486,-0.030946314334869385,-0.05900203809142113,0.2646218538284302,0.20979078114032745,0.02937968261539936
1764808580.293379,-0.056603930753469464,-0.18781155933141708,0.4631681311249733,0.1545562893152237,0.22316904366016388,-0.10290239006280899,,,,,,
1764808580.294604,,,,,,,0.005479693412780762,-0.04025900363922119,-0.05747973546385765,0.24147005379199982,0.2028348594903946,0.044535864144563675
1764808580.303431,-0.08013210585713386,-0.2577671390891075,0.45007476773075755,0.1351383775472641,0.23301954567432404,-0.11861983686685562,,,,,,
1764808580.304634,,,,,,,-0.0008091330528259277,-0.05312472581863403,-0.05672704800963402,0.1973840892314911,0.19328530132770538,0.0560617595911026
1764808580.313483,-0.06556143645197153,-0.323362185549736,0.39774252294711765,0.10400552302598953,0.23727604746818542,-0.1366582065820694,,,,,,
1764808580.314664,,,,,,,-0.0054392218589782715,-0.06298953294754028,-0.057726625353097916,0.16487351059913635,0.18570168316364288,0.07841360569000244
1764808580.323535,-0.02784106986671686,-0.39713352420330045,0.36543380614705384,0.059508632868528366,0.23015421628952026,-0.16415800154209137,,,,,,
1764808580.324693,,,,,,,-0.00712895393371582,-0.06461402773857117,-0.05846560373902321,0.12867262959480286,0.16631093621253967,0.12721043825149536
1764808580.333587,0.004216156390309334,-0.4481745601326227,0.28242702163644134,0.009529192931950092,0.20899659395217896,-0.2070964276790619,,,,,,
1764808580.334723,,,,,,,-0.00394672155380249,-0.06157687306404114,-0.05429517850279808,0.08592892438173294,0.12773345410823822,0.17488181591033936
1764808580.34364,0.09719196172952652,-0.5150052858680486,0.1500702230233699,-0.03632431477308273,0.16755753755569458,-0.25960755348205566,,,,,,
1764808580.344754,,,,,,,-0.008854568004608154,-0.06573989987373352,-0.043929100036621094,0.04332713410258293,0.0989164486527443,0.22379210591316223
1764808580.353693,0.25952538093328475,-0.5761603040546178,0.004013327294588089,-0.06772589683532715,0.11985805630683899,-0.3080630302429199,,,,,,
1764808580.354784,,,,,,,-0.019216060638427734,-0.06837871670722961,-0.033000584691762924,0.006007881369441748,0.08110576122999191,0.28284895420074463
1764808580.363744,0.45120004543364045,-0.560482842451334,-0.07568743794057518,-0.08692356199026108,0.07033151388168335,-0.34234508872032166,,,,,,
1764808580.364814,,,,,,,-0.02647256851196289,-0.06641295552253723,-0.0210496187210083,-0.025041380897164345,0.058879554271698,0.3456582725048065
1764808580.373796,0.5640411194548011,-0.5143552975267172,-0.11474986678455024,-0.10180100053548813,0.020260188728570938,-0.3691549301147461,,,,,,
1764808580.374844,,,,,,,-0.03413313627243042,-0.06554853916168213,-0.021914243698120117,-0.04332217946648598,0.045021262019872665,0.40754804015159607
1764808580.38385,0.5756222516551613,-0.5132008667945861,-0.1344751059412956,-0.12330230325460434,-0.03181818872690201,-0.3941255211830139,,,,,,
1764808580.384874,,,,,,,-0.038094282150268555,-0.055699437856674194,-0.029035452753305435,-0.06760035455226898,0.030570149421691895,0.4562132954597473
1764808580.393902,0.5092493526898324,-0.5966857902109622,-0.11751586089916527,-0.15009188652038574,-0.09071735292673111,-0.4236467480659485,,,,,,
1764808580.394904,,,,,,,-0.04099547863006592,-0.03962451219558716,-0.03186416253447533,-0.08609750866889954,0.008707727305591106,0.49396201968193054
1764808580.403954,0.4605738768480718,-0.6960533424139023,-0.0694166871080175,-0.18196460604667664,-0.14328017830848694,-0.45186880230903625,,,,,,
1764808580.404933,,,,,,,-0.04550588130950928,-0.02027839422225952,-0.030382517725229263,-0.10718787461519241,0.0011174522805958986,0.5206900238990784
1764808580.414006,0.4230290129601955,-0.7595996396511793,-0.05210420818142593,-0.20661920309066772,-0.17979180812835693,-0.47380542755126953,,,,,,
1764808580.414963,,,,,,,-0.052331507205963135,-0.0019661784172058105,-0.02554023638367653,-0.12179018557071686,0.005478378385305405,0.5366232395172119
1764808580.424058,0.4043943089865148,-0.7115104392647743,-0.11672551423907279,-0.21634453535079956,-0.19072355329990387,-0.48145750164985657,,,,,,
1764808580.424994,,,,,,,-0.05700498819351196,0.015866488218307495,-0.015174277126789093,-0.13965600728988647,0.005989971570670605,0.5384280681610107
1764808580.434111,0.4034248794324696,-0.5615501794219017,-0.21297639572620392,-0.20851264894008636,-0.1737835556268692,-0.4750589430332184,,,,,,
1764808580.435024,,,,,,,-0.05546003580093384,0.029002606868743896,-0.00545954704284668,-0.1519259661436081,0.00896871741861105,0.540544867515564
1764808580.444164,0.33628187287747857,-0.4223877924472093,-0.3445897555608302,-0.1886521279811859,-0.1377938687801361,-0.47008439898490906,,,,,,
1764808580.445055,,,,,,,-0.05432689189910889,0.036785900592803955,0.0026128292083740234,-0.15880997478961945,0.021190496161580086,0.5371570587158203
1764808580.454216,0.28522666229233146,-0.34242519793808457,-0.4172738834995776,-0.17197073996067047,-0.08333081752061844,-0.4684021770954132,,,,,,
1764808580.455085,,,,,,,-0.05287903547286987,0.05007052421569824,0.008852005004882812,-0.16342531144618988,0.037974536418914795,0.5283018946647644
1764808580.464267,0.26952187429070473,-0.3302420081913471,-0.4421090495485812,-0.1599428355693817,-0.021975846961140633,-0.46857982873916626,,,,,,
1764808580.465115,,,,,,,-0.05070853233337402,0.07161736488342285,0.009502537548542023,-0.15240542590618134,0.04876033961772919,0.5154252052307129
1764808580.47432,0.29118308647871016,-0.2810802101373672,-0.4598258349597454,-0.1491495817899704,0.04298530891537666,-0.4647046625614166,,,,,,
1764808580.475145,,,,,,,-0.04960209131240845,0.0939660370349884,0.0093008354306221,-0.12366635352373123,0.06819289177656174,0.49616628885269165
1764808580.484373,0.39060134595558044,-0.21687691029608247,-0.4948889650344848,-0.1297435313463211,0.10923994332551956,-0.44591769576072693,,,,,,
1764808580.485174,,,,,,,-0.048523545265197754,0.11928090453147888,0.007894154638051987,-0.08915258198976517,0.09085719287395477,0.46983641386032104
1764808580.494425,0.5347279312089085,-0.0790624307990074,-0.5555179135203361,-0.10186076909303665,0.16562625765800476,-0.40547120571136475,,,,,,
1764808580.495204,,,,,,,-0.04346233606338501,0.14493313431739807,0.004290934652090073,-0.055397722870111465,0.10451067984104156,0.4216448664665222
1764808580.504478,0.7496389482595026,0.06550327652394772,-0.5794154333930462,-0.06494422256946564,0.18535882234573364,-0.35084769129753113,,,,,,
1764808580.505234,,,,,,,-0.03858894109725952,0.16588664054870605,-0.004972938448190689,-0.019305232912302017,0.11344905197620392,0.3684263825416565
1764808580.514529,0.9551758416347205,0.0853285054564476,-0.5671826323509216,-0.027268217876553535,0.16957241296768188,-0.2922288477420807,,,,,,
1764808580.515265,,,,,,,-0.0377507209777832,0.18633410334587097,-0.008550643920898438,0.017222069203853607,0.12192855775356293,0.3062262535095215
1764808580.524581,1.1127702496178447,0.011300561693310738,-0.5487760380446911,0.01052841730415821,0.1365775763988495,-0.23588402569293976,,,,,,
1764808580.525295,,,,,,,-0.03909808397293091,0.19396886229515076,-0.0008217096328735352,0.02289113961160183,0.11421897262334824,0.2382434904575348
1764808580.534635,1.2052949501886963,0.014894202271103859,-0.5993243220210075,0.04860096797347069,0.12111340463161469,-0.19790787994861603,,,,,,
1764808580.535325,,,,,,,-0.04149484634399414,0.19483551383018494,0.01571499928832054,-0.02016734518110752,0.12012692540884018,0.15694096684455872
1764808580.544687,1.246950610396266,0.11994389176368712,-0.7829553807973861,0.1024232879281044,0.12919995188713074,-0.17064431309700012,,,,,,
1764808580.545355,,,,,,,-0.04692435264587402,0.1873939037322998,0.028014767915010452,-0.11185704916715622,0.13750804960727692,0.07158772647380829
1764808580.554739,1.2993537284590304,0.2128285116881132,-0.9232616040449589,0.1620464026927948,0.14288939535617828,-0.1405165046453476,,,,,,
1764808580.555386,,,,,,,-0.048573195934295654,0.186984121799469,0.03761207312345505,-0.20893439650535583,0.17013897001743317,0.008111079223453999
1764808580.564791,1.457533681245148,0.24272388373613357,-0.9796843330126255,0.22459302842617035,0.1587536633014679,-0.08817403763532639,,,,,,
1764808580.565416,,,,,,,-0.05143463611602783,0.20450127124786377,0.04068957641720772,-0.29290837049484253,0.20532386004924774,-0.062405429780483246
1764808580.574843,1.6205571285396814,0.3561129470288753,-0.9880828165888785,0.2904207706451416,0.174196258187294,-0.012208431959152222,,,,,,
1764808580.575446,,,,,,,-0.05178624391555786,0.24454370141029358,0.039973847568035126,-0.35924267768859863,0.23396562039852142,-0.16640174388885498
1764808580.584895,1.760438769699633,0.5508300479650498,-1.042982281512022,0.36897924542427063,0.18135105073451996,0.08493372052907944,,,,,,
1764808580.585475,,,,,,,-0.0451623797416687,0.29740095138549805,0.03762520104646683,-0.4070267081260681,0.26423323154449463,-0.281538724899292
1764808580.594949,1.8608026394635437,0.7108855853646994,-1.094570868321508,0.4673510789871216,0.17990629374980927,0.19090329110622406,,,,,,
1764808580.595505,,,,,,,-0.03434896469116211,0.34035417437553406,0.04349625110626221,-0.4580517113208771,0.28029823303222656,-0.4076903760433197
1764808580.605,1.9315442550323902,0.8924597116112708,-1.1827297748982906,0.5933982729911804,0.17476242780685425,0.3014826476573944,,,,,,
1764808580.605536,,,,,,,-0.025380611419677734,0.3737550675868988,0.0610513761639595,-0.5174686908721924,0.2941668927669525,-0.5543919205665588
1764808580.615052,1.9841881961137056,0.9171656983226537,-1.2674024467945098,0.7251829504966736,0.17671158909797668,0.4179602563381195,,,,,,
1764808580.615566,,,,,,,-0.021776020526885986,0.3915548622608185,0.07954180240631104,-0.5248355865478516,0.3203638792037964,-0.6967824101448059
1764808580.625106,1.9879208067707717,0.810880329555273,-1.2524234888494015,0.8370177149772644,0.20505456626415253,0.535861074924469,,,,,,
1764808580.625596,,,,,,,-0.02428913116455078,0.394599050283432,0.08517003804445267,-0.4839595556259155,0.3598945140838623,-0.8259100317955017
1764808580.635158,1.9197407122530041,0.616436784863472,-1.2219488556087017,0.9039978384971619,0.2860149145126343,0.6422788500785828,,,,,,
1764808580.635626,,,,,,,-0.032794833183288574,0.3972674608230591,0.07431911677122116,-0.4160800874233246,0.41006767749786377,-0.9631896615028381
1764808580.64521,1.7862775598332286,0.4914204121410846,-1.2468261072337627,0.9404504895210266,0.4096229374408722,0.730319082736969,,,,,,
1764808580.645656,,,,,,,-0.03788715600967407,0.39930182695388794,0.05359017848968506,-0.33900687098503113,0.4702055752277374,-1.1002492904663086
1764808580.655262,1.6557769104808568,0.4804156185239553,-1.3015817797720433,0.9654141664505005,0.5396451354026794,0.8048273921012878,,,,,,
1764808580.655686,,,,,,,-0.031080663204193115,0.3977710008621216,0.03621269762516022,-0.2921081781387329,0.5053523778915405,-1.21616792678833
1764808580.665315,1.654327588455379,0.5198194081515074,-1.369486856740713,0.99647057056427,0.6552727222442627,0.868905246257782,,,,,,
1764808580.665715,,,,,,,-0.015735864639282227,0.38908395171165466,0.029245510697364807,-0.3005956709384918,0.5057414770126343,-1.3256208896636963
1764808580.675367,1.7971670565076172,0.5496604196637869,-1.458604233086109,1.051613211631775,0.7476745843887329,0.9329798221588135,,,,,,
1764808580.675745,,,,,,,-0.00738757848739624,0.37268346548080444,0.04531572759151459,-0.40287142992019653,0.5026141405105591,-1.4432017803192139
1764808580.68542,2.0398829030677676,0.5978396364212035,-1.571885159829259,1.1339006423950195,0.8028737306594849,1.0139014720916748,,,,,,
1764808580.685776,,,,,,,-0.00851219892501831,0.3647649586200714,0.08039319515228271,-0.5445013046264648,0.5242778658866882,-1.547040343284607
1764808580.695472,2.3292700460404157,0.5490338121980428,-1.589762761825323,1.2166945934295654,0.8054684400558472,1.1091207265853882,,,,,,
1764808580.695807,,,,,,,-0.020061731338500977,0.3652898669242859,0.1109997034072876,-0.6583938598632812,0.5794202089309692,-1.6187849044799805
1764808580.705523,2.587230954135954,0.46139527623355386,-1.5212819307953118,1.2868956327438354,0.7594700455665588,1.2193808555603027,,,,,,
1764808580.705837,,,,,,,-0.034089088439941406,0.3766280710697174,0.13438941538333893,-0.6991255879402161,0.6780285239219666,-1.700084924697876
1764808580.715576,2.7942420117169617,0.5273796142727136,-1.4343196866571903,1.3639731407165527,0.6820207834243774,1.3394849300384521,,,,,,
1764808580.715867,,,,,,,-0.03949463367462158,0.4111318290233612,0.15416313707828522,-0.6835440397262573,0.8033971190452576,-1.8212445974349976
1764808580.725629,2.899192624749243,0.8182534886717796,-1.428525321164727,1.454404592514038,0.5972943902015686,1.4761173725128174,,,,,,
1764808580.725897,,,,,,,-0.022298991680145264,0.4580434560775757,0.15874110162258148,-0.6749691963195801,0.9035892486572266,-1.9761565923690796
1764808580.735681,2.87420723657459,1.3208674950003623,-1.5212141262561083,1.5573240518569946,0.5203863382339478,1.6243624687194824,,,,,,
1764808580.735927,,,,,,,0.022157490253448486,0.5000188946723938,0.1626276671886444,-0.6658703088760376,0.9573986530303955,-2.1542766094207764
1764808580.745733,2.772327993811667,1.6933932321697474,-1.6533604969888924,1.674109935760498,0.4499278962612152,1.7888164520263672,,,,,,
1764808580.745957,,,,,,,0.07253581285476685,0.5077153444290161,0.17687784135341644,-0.6393452286720276,0.991047203540802,-2.2952680587768555
1764808580.755785,2.6258213815540072,1.7201386157542466,-1.7539982152581215,1.7664982080459595,0.4149547219276428,1.9414381980895996,,,,,,
1764808580.755986,,,,,,,0.10546654462814331,0.4797629714012146,0.1900874525308609,-0.6136845946311951,1.0285567045211792,-2.428164005279541
1764808580.765837,2.4426550176799298,1.5999094773083924,-1.7601941472887992,1.818395733833313,0.4235975742340088,2.0517587661743164,,,,,,
1764808580.766016,,,,,,,0.11023831367492676,0.4419487416744232,0.20068302750587463,-0.6516975164413452,1.0957980155944824,-2.5647764205932617
1764808580.775891,2.2027502830177546,1.4797715242773293,-1.7095546778976916,1.8587843179702759,0.47609835863113403,2.1211698055267334,,,,,,
1764808580.776047,,,,,,,0.10623985528945923,0.41956937313079834,0.21678581833839417,-0.7097033262252808,1.213714838027954,-2.6979658603668213
1764808580.785943,2.0784306603878737,1.4353829319745302,-1.7488903707250951,1.9090123176574707,0.5221441984176636,2.1905486583709717,,,,,,
1764808580.786077,,,,,,,0.10731565952301025,0.4333028197288513,0.23469340801239014,-0.7160241007804871,1.353969931602478,-2.807314157485962
1764808580.795995,2.1337091877564784,1.6055284862339496,-1.7890863336436449,1.9826982021331787,0.5375238060951233,2.317291259765625,,,,,,
1764808580.796107,,,,,,,0.112956702709198,0.48300600051879883,0.26228800415992737,-0.6537988185882568,1.5193392038345337,-2.9061412811279297
1764808580.806047,2.278977782651782,1.9700947888314724,-1.8508691283397376,2.0730841159820557,0.5611534714698792,2.4766786098480225,,,,,,
1764808580.806138,,,,,,,0.13291192054748535,0.534398078918457,0.2647310495376587,-0.46165305376052856,1.6484830379486084,-2.9914474487304688
1764808580.816099,2.3072686421126125,2.2582377769619226,-2.013699537280202,2.1516177654266357,0.5784851908683777,2.6332967281341553,,,,,,
1764808580.816168,,,,,,,0.16954666376113892,0.5260509252548218,0.2542329728603363,-0.1796027421951294,1.736471176147461,-3.0692005157470703
1764808580.826152,2.226653428913653,2.3488889387458562,-1.9850413058117031,2.2143642902374268,0.5872728228569031,2.7533199787139893,,,,,,
1764808580.826197,,,,,,,0.20648616552352905,0.4916495084762573,0.2680385410785675,0.03516921401023865,1.8154268264770508,-3.1615781784057617
1764808580.836205,2.037524649503827,2.337196162864566,-1.8436334779977797,2.279730796813965,0.6052076816558838,2.824253559112549,,,,,,
1764808580.836228,,,,,,,0.23322778940200806,0.46017730236053467,0.2916027307510376,0.1884911060333252,1.8959370851516724,-3.2619457244873047
1764808580.846256,1.852493660801649,2.301989824926853,-1.8019539985232054,2.341622829437256,0.6162459254264832,2.8836610317230225,,,,,,
1764808580.846257,,,,,,,0.2518439292907715,0.42907047271728516,0.31515395641326904,0.2661936283111572,1.980475902557373,-3.3534884452819824
1764808580.856287,,,,,,,0.2690458297729492,0.42582082748413086,0.3363015651702881,0.31100744009017944,2.081231117248535,-3.4214026927948
1764808580.856308,1.7792086443603037,2.3357120617866514,-1.7916254967324434,2.3954977989196777,0.6331340670585632,2.9613683223724365,,,,,,
1764808580.866318,,,,,,,0.2977677583694458,0.4147535562515259,0.338794082403183,0.35466837882995605,2.1530303955078125,-3.48494815826416
1764808580.866362,1.7946978899151085,2.5987206086605785,-1.94935098374933,2.45784068107605,0.6943023204803467,3.051867961883545,,,,,,
1764808580.876348,,,,,,,0.3244836926460266,0.38849472999572754,0.3695615231990814,0.3520401418209076,2.232351779937744,-3.541309356689453
1764808580.876414,1.802250497251749,2.9281384409874676,-2.2655004614412784,2.541029214859009,0.7704448699951172,3.1408791542053223,,,,,,
1764808580.886378,,,,,,,0.3459157943725586,0.37284016609191895,0.3899114727973938,0.3197519779205322,2.302307367324829,-3.5763139724731445
1764808580.886466,1.8489064499646424,3.1388053907275197,-2.334905713839829,2.639030933380127,0.819763720035553,3.2329115867614746,,,,,,
1764808580.896408,,,,,,,0.36107438802719116,0.3505936861038208,0.3732820451259613,0.25142034888267517,2.3536529541015625,-3.6297643184661865
1764808580.896518,1.8747388103574514,3.086184976652264,-2.156250397649407,2.699622392654419,0.8257977962493896,3.3109166622161865,,,,,,
1764808580.906438,,,,,,,0.36481159925460815,0.3431556224822998,0.3556799292564392,0.1953994482755661,2.4588661193847656,-3.6656315326690674
1764808580.90657,1.8187100491434334,2.8627047225683926,-1.8317077701434492,2.7145190238952637,0.7953386902809143,3.3723678588867188,,,,,,
1764808580.916468,,,,,,,0.3706428110599518,0.3508991599082947,0.3281913995742798,0.21998529136180878,2.530123233795166,-3.685818910598755
1764808580.916623,1.7917156592339276,2.6416286070168016,-1.6030863537788391,2.713592529296875,0.7601470947265625,3.4166176319122314,,,,,,
1764808580.926499,,,,,,,0.38603588938713074,0.35180187225341797,0.3119540810585022,0.25070619583129883,2.575575113296509,-3.7211334705352783
1764808580.926676,1.8165467336297034,2.5697721620738503,-1.6129022298723459,2.7109432220458984,0.7318049073219299,3.4462382793426514,,,,,,
1764808580.936528,,,,,,,0.3987373113632202,0.34411710500717163,0.32607966661453247,0.2577221095561981,2.6398396492004395,-3.7465856075286865
1764808580.936728,1.8648533761590718,2.6838117982298133,-1.7485148154109715,2.7391278743743896,0.6956636905670166,3.481005907058716,,,,,,
1764808580.946558,,,,,,,0.4124006927013397,0.32146191596984863,0.3690137267112732,0.2122422307729721,2.7190096378326416,-3.776136875152588
1764808580.946779,1.8894927273750304,2.9490362675875423,-1.8287188174605369,2.79671311378479,0.6621612906455994,3.532618761062622,,,,,,
1764808580.956589,,,,,,,0.42897170782089233,0.3218120336532593,0.42613765597343445,0.13219395279884338,2.838134527206421,-3.80659556388855
1764808580.956832,1.8814239872097969,3.4147844783335923,-1.9280714643552899,2.884493112564087,0.6553026437759399,3.6029767990112305,,,,,,
1764808580.966619,,,,,,,0.4532039761543274,0.3269972801208496,0.44203487038612366,0.038735367357730865,2.9102964401245117,-3.8295300006866455
1764808580.966885,1.8870973566710947,3.9175165580838915,-2.092131561221182,2.995532989501953,0.696000874042511,3.679556131362915,,,,,,
1764808580.976648,,,,,,,0.4735466241836548,0.30017149448394775,0.4383039176464081,-0.023812882602214813,3.019634485244751,-3.813664674758911
1764808580.976937,1.785551291385293,4.079786264401674,-2.238357602971792,3.088993549346924,0.72782963514328,3.7497382164001465,,,,,,
1764808580.986679,,,,,,,0.4760354161262512,0.27076584100723267,0.4046383500099182,-0.032981351017951965,3.1539931297302246,-3.784367561340332
1764808580.986989,1.5957862598985433,3.8849335543870924,-1.9851389209672807,3.0975537300109863,0.7405200004577637,3.789457321166992,,,,,,
1764808580.996709,,,,,,,0.4763588309288025,0.25994396209716797,0.34978625178337097,0.0785021111369133,3.2626967430114746,-3.7445790767669678
1764808580.997041,1.28125912271142,3.479230354759097,-1.6029554208755492,3.042011022567749,0.7531721591949463,3.776024341583252,,,,,,
1764808581.006739,,,,,,,0.4797438979148865,0.24781036376953125,0.30351054668426514,0.1959983855485916,3.3347716331481934,-3.7013132572174072
1764808581.007093,0.8801420818299055,2.9366023179501295,-1.4808505516856907,2.975375175476074,0.7664421796798706,3.7268755435943604,,,,,,
1764808581.016768,,,,,,,0.4921509921550751,0.2421705722808838,0.29798048734664917,0.36774325370788574,3.357389211654663,-3.659339189529419
1764808581.017146,0.5732102220773696,2.6903110971212385,-1.375587511703372,2.911599636077881,0.7902316451072693,3.6685338020324707,,,,,,
1764808581.026798,,,,,,,0.5060540437698364,0.21292662620544434,0.30948150157928467,0.5307568907737732,3.359870433807373,-3.609057903289795
1764808581.027199,0.4039940576225519,2.7843934023976322,-1.3193491993919013,2.877393960952759,0.855618417263031,3.627511739730835,,,,,,
1764808581.036828,,,,,,,0.5114234089851379,0.1993834376335144,0.34836649894714355,0.619036078453064,3.383603096008301,-3.590960741043091
1764808581.037251,0.2952916908413172,3.075035221606493,-1.5442971879407763,2.8896400928497314,0.9715620875358582,3.611064910888672,,,,,,
1764808581.046858,,,,,,,0.5244196653366089,0.18875187635421753,0.38011541962623596,0.7928019762039185,3.4096133708953857,-3.4767022132873535
1764808581.047303,0.2534311557114124,3.600686989173293,-1.7796525887355208,2.915393114089966,1.092908263206482,3.6311593055725098,,,,,,
1764808581.056889,,,,,,,0.5492894649505615,0.13639450073242188,0.3487253785133362,0.9083579778671265,3.366008758544922,-3.4036319255828857
1764808581.057356,0.2336556111395359,3.995762411803007,-1.7910364447981117,2.9033687114715576,1.1785720586776733,3.6470136642456055,,,,,,
1764808581.066919,,,,,,,0.5524970293045044,0.0765296220779419,0.35522106289863586,0.787493884563446,3.3533377647399902,-3.440396308898926
1764808581.067408,0.06363163743317127,3.8997619979456064,-1.7438026921972631,2.879035472869873,1.1680667400360107,3.600045680999756,,,,,,
1764808581.076949,,,,,,,0.5524467825889587,0.054246723651885986,0.39451077580451965,0.6366756558418274,3.379685640335083,-3.378394842147827
1764808581.07746,0.029199790999293325,3.6210350729361176,-1.6098010489866137,2.8862900733947754,1.0247548818588257,3.5511608123779297,,,,,,
1764808581.086979,,,,,,,0.5832152962684631,0.03400290012359619,0.3769647777080536,0.5623468160629272,3.3600010871887207,-3.249315023422241
1764808581.087513,0.22419220174551008,3.65736983038187,-1.325149994625151,2.8866734504699707,0.8580412268638611,3.5331690311431885,,,,,,
1764808581.097009,,,,,,,0.603958249092102,-0.001331031322479248,0.31501305103302,0.48173582553863525,3.297579526901245,-3.1964609622955322
1764808581.097565,0.2511053431123495,3.9292537576287985,-1.1013535141989588,2.862440586090088,0.7410573363304138,3.508178472518921,,,,,,
1764808581.107039,,,,,,,0.6045734882354736,-0.02667224407196045,0.2650803029537201,0.43976786732673645,3.2446019649505615,-3.117521047592163
1764808581.107617,0.05002513688504696,4.034125167945027,-0.9882567118510603,2.8184282779693604,0.6509564518928528,3.474504232406616,,,,,,
1764808581.117069,,,,,,,0.605209469795227,-0.03471022844314575,0.22550830245018005,0.4950856566429138,3.181109666824341,-3.008195638656616
1764808581.11767,-0.25242402449548246,3.9260540848046537,-0.8055787160158157,2.7671127319335938,0.5992578268051147,3.4179255962371826,,,,,,
1764808581.127099,,,,,,,0.5942074060440063,-0.03137141466140747,0.22142431139945984,0.5979797840118408,3.1362786293029785,-2.914721727371216
1764808581.127722,-0.6250584827363491,3.7228658003821966,-0.7093821950644255,2.7188150882720947,0.5997412204742432,3.3381590843200684,,,,,,
1764808581.137129,,,,,,,0.5701419711112976,-0.036529719829559326,0.21752884984016418,0.6948301792144775,3.111670732498169,-2.827540874481201
1764808581.137775,-1.0250707772463559,3.595949731518328,-0.795512664553523,2.6642096042633057,0.6235325932502747,3.2487030029296875,,,,,,
1764808581.147159,,,,,,,0.563768744468689,-0.07313072681427002,0.21016445755958557,0.7398075461387634,3.065263509750366,-2.7703869342803955
1764808581.147827,-1.4396294835031032,3.6336402874872085,-0.8911778551071882,2.6147561073303223,0.6430266499519348,3.141216516494751,,,,,,
1764808581.157189,,,,,,,0.5730608701705933,-0.09728920459747314,0.23951956629753113,0.6870425343513489,3.018186092376709,-2.715115785598755
1764808581.157879,-1.7346119622647762,3.725514269064367,-0.9984333840809761,2.5799760818481445,0.6663492918014526,3.0295674800872803,,,,,,
1764808581.167219,,,,,,,0.5923849940299988,-0.10738098621368408,0.24903810024261475,0.6036655902862549,2.968698024749756,-2.6406679153442383
1764808581.167932,-1.7578782715618608,3.902362828093767,-1.0628566102832555,2.543766498565674,0.6921855211257935,2.934587240219116,,,,,,
1764808581.17725,,,,,,,0.60665363073349,-0.12875020503997803,0.26265451312065125,0.4365067183971405,2.9071500301361084,-2.5907461643218994
1764808581.177984,-1.5326584803342818,4.121727755813301,-1.1820192885413765,2.5095674991607666,0.679754912853241,2.8648319244384766,,,,,,
1764808581.18728,,,,,,,0.6131983995437622,-0.14565259218215942,0.270055890083313,0.2987416684627533,2.838895320892334,-2.498612880706787
1764808581.188036,-1.1515127988576888,4.317753893521428,-1.2116529409132897,2.4689505100250244,0.5852149128913879,2.8295583724975586,,,,,,
1764808581.19731,,,,,,,0.6075406670570374,-0.1612321138381958,0.24303258955478668,0.17546723783016205,2.750908613204956,-2.4330172538757324
1764808581.198088,-0.882494782435894,4.301619043539464,-1.1206827763080596,2.4172043800354004,0.44999876618385315,2.79535174369812,,,,,,
1764808581.20734,,,,,,,0.5768061280250549,-0.14998549222946167,0.23244978487491608,0.09065461903810501,2.713655471801758,-2.3933141231536865
1764808581.208141,-0.8921008151710033,4.08574195793569,-1.0879049806915222,2.3565194606781006,0.327517569065094,2.7233285903930664,,,,,,
1764808581.21737,,,,,,,0.5513983368873596,-0.12037849426269531,0.22080254554748535,0.07001534104347229,2.6923611164093018,-2.341688871383667
1764808581.218193,-1.0237444970786571,3.9311446859419346,-0.9900450565725565,2.2905447483062744,0.23301807045936584,2.642005443572998,,,,,,
1764808581.2274,,,,,,,0.5509483814239502,-0.07991153001785278,0.21625137329101562,0.08085466921329498,2.651221752166748,-2.289330244064331
1764808581.228246,-1.1063654971420764,3.971211323392391,-0.8521170336984097,2.2291624546051025,0.16160833835601807,2.5752413272857666,,,,,,
1764808581.23743,,,,,,,0.5637248158454895,-0.06141549348831177,0.20949923992156982,0.08367056399583817,2.5947673320770264,-2.228797197341919
1764808581.238298,-1.1994810032129286,4.132382713079452,-0.8386996259815991,2.184410810470581,0.12148047238588333,2.5194342136383057,,,,,,
1764808581.24746,,,,,,,0.5644408464431763,-0.08581632375717163,0.19471442699432373,0.007882857695221901,2.518761157989502,-2.203014850616455
1764808581.24835,-1.3186398820787668,4.19990142107904,-0.9260504310458898,2.1519052982330322,0.1176801398396492,2.452399730682373,,,,,,
1764808581.25749,,,,,,,0.5408372282981873,-0.10603290796279907,0.21346521377563477,-0.13437172770500183,2.4887430667877197,-2.2159249782562256
1764808581.258402,-1.4252905770272015,4.019512120702863,-1.0488513927411287,2.13228702545166,0.12226041406393051,2.3954193592071533,,,,,,
1764808581.26752,,,,,,,0.5199011564254761,-0.08244562149047852,0.26393723487854004,-0.3133063316345215,2.4931442737579346,-2.203246831893921
1764808581.268455,-1.3404986626654862,3.9286978773117065,-1.1183953960232436,2.1229403018951416,0.11431726813316345,2.367924690246582,,,,,,
1764808581.27755,,,,,,,0.5300494432449341,-0.04524397850036621,0.2804103493690491,-0.4627014398574829,2.4684500694274902,-2.226224184036255
1764808581.278507,-1.0094055906027555,4.167482083511352,-1.2547487169265745,2.094736099243164,0.07898657768964767,2.380276679992676,,,,,,
1764808581.28758,,,,,,,0.5404756665229797,-0.005284488201141357,0.27319711446762085,-0.5304356813430786,2.445862293243408,-2.221949338912964
1764808581.288559,-0.6055757836312056,4.424442582392692,-1.233932723391056,2.037277936935425,0.006569370627403259,2.4232306480407715,,,,,,
1764808581.29761,,,,,,,0.545035183429718,0.05112725496292114,0.19053030014038086,-0.40679991245269775,2.421710968017578,-2.182368278503418
1764808581.298612,-0.3232107943803072,4.510113617676496,-0.9423235204547643,1.9500232934951782,-0.039438843727111816,2.4747190475463867,,,,,,
1764808581.307641,,,,,,,0.5253670811653137,0.10235428810119629,0.1032678484916687,-0.19565914571285248,2.3748319149017334,-2.195338010787964
1764808581.308664,-0.3251443927913904,4.240204789894819,-0.5353577535450458,1.824223279953003,-0.0477103553712368,2.4999561309814453,,,,,,
1764808581.317672,,,,,,,0.49101459980010986,0.10824233293533325,0.040816374123096466,0.025124935433268547,2.3420376777648926,-2.1803531646728516
1764808581.318716,-0.6088800858736038,3.6870074282765386,-0.05696048910617828,1.6851049661636353,-0.054887555539608,2.498955249786377,,,,,,
1764808581.327701,,,,,,,0.47950273752212524,0.06457459926605225,0.0045781806111335754,0.13967813551425934,2.2676117420196533,-2.1568009853363037
1764808581.328769,-1.0512772316485643,3.215421597418189,0.34171968001723285,1.5600428581237793,-0.05571819469332695,2.450253486633301,,,,,,
1764808581.337731,,,,,,,0.48857802152633667,-0.005057334899902344,-6.406009197235107e-05,0.15776848793029785,2.1651430130004883,-2.1063101291656494
1764808581.338821,-1.4421446811944245,2.9721324810147283,0.4036556194484234,1.4742907285690308,-0.04810241982340813,2.3652853965759277,,,,,,
1764808581.347761,,,,,,,0.5100802779197693,-0.08862939476966858,0.013484612107276917,0.08790312707424164,2.0575833320617676,-2.0515847206115723
1764808581.348873,-1.6367635824531315,3.0310178007036446,0.3290191883981228,1.4196919202804565,-0.04058804363012314,2.2518579959869385,,,,,,
1764808581.357791,,,,,,,0.5335699319839478,-0.1457461416721344,0.05753272771835327,-0.007037860341370106,1.956886649131775,-1.9568651914596558
1764808581.358926,-1.656156849709153,3.3232144481390713,0.23843813270833342,1.3923002481460571,-0.02109343744814396,2.1249489784240723,,,,,,
1764808581.367821,,,,,,,0.5435327887535095,-0.176518052816391,0.05718202888965607,-0.10516176372766495,1.8445154428482056,-1.8499163389205933
1764808581.368978,-1.5334405706226826,3.6922365611016748,0.08946925852298736,1.3752248287200928,-0.010166015475988388,2.009643793106079,,,,,,
1764808581.377851,,,,,,,0.5296502113342285,-0.19105985760688782,-0.009893059730529785,-0.1901579350233078,1.7470080852508545,-1.7152341604232788
1764808581.379031,-1.3831418726056814,3.8029081821292636,0.25231354985833165,1.3014699220657349,-0.05554414913058281,1.9112811088562012,,,,,,
1764808581.387881,,,,,,,0.5044508576393127,-0.2309643030166626,-0.127818763256073,-0.2188926339149475,1.607778787612915,-1.5989826917648315
1764808581.389083,-1.2976941246837377,3.4535423712730404,0.8953391395051031,1.167999029159546,-0.1404062658548355,1.7943602800369263,,,,,,
1764808581.397911,,,,,,,0.48590636253356934,-0.2622918486595154,-0.2096247375011444,-0.23070305585861206,1.4495686292648315,-1.4634137153625488
1764808581.399135,-1.4923364068180323,2.7209681011915205,1.5471546231985092,1.009499192237854,-0.22893959283828735,1.6190294027328491,,,,,,
1764808581.407941,,,,,,,0.4887539744377136,-0.27045631408691406,-0.26361435651779175,-0.16004140675067902,1.2567787170410156,-1.287603497505188
1764808581.409188,-1.924585668066144,2.1118986302256584,1.9576945953331886,0.8512464761734009,-0.29969099164009094,1.3980435132980347,,,,,,
1764808581.417971,,,,,,,0.49394941329956055,-0.2687833607196808,-0.29631465673446655,-0.038370922207832336,1.0664817094802856,-1.0925378799438477
1764808581.41924,-2.3564824626147747,1.897255762591958,2.1529203764438627,0.6943102478981018,-0.3176741600036621,1.1702547073364258,,,,,,
1764808581.428002,,,,,,,0.4949648976325989,-0.26598942279815674,-0.3007097840309143,0.12339560687541962,0.8863828182220459,-0.8873591423034668
1764808581.429292,-2.688667129306495,1.9893992087602614,2.1576924131512643,0.5616825222969055,-0.25255781412124634,0.9539409875869751,,,,,,
1764808581.438032,,,,,,,0.4917792081832886,-0.2679009437561035,-0.2849687337875366,0.23280012607574463,0.7088112235069275,-0.6665931344032288
1764808581.439345,-2.901364123569429,2.207314229932427,1.947782419258356,0.4666270911693573,-0.1251353919506073,0.7567011117935181,,,,,,
1764808581.448062,,,,,,,0.4799067974090576,-0.2922018766403198,-0.28109684586524963,0.32511329650878906,0.5362722277641296,-0.4254191219806671
1764808581.449397,-3.008887217438221,2.4378490787029263,1.788189092542976,0.3841612637042999,-0.01978149451315403,0.5713890790939331,,,,,,
1764808581.458092,,,,,,,0.4543617367744446,-0.36434969305992126,-0.2858777642250061,0.3832162320613861,0.380575567483902,-0.21279160678386688
1764808581.459449,-2.98689984203577,2.442361003169417,1.8219487388037143,0.29681941866874695,0.039522573351860046,0.3726509213447571,,,,,,
1764808581.468122,,,,,,,0.4428086280822754,-0.39082905650138855,-0.2977132797241211,0.38947734236717224,0.22544270753860474,-0.021531634032726288
1764808581.469502,-2.9906738076165316,2.258278108972311,1.9155542203485965,0.18249523639678955,0.0479760579764843,0.14427576959133148,,,,,,
1764808581.478152,,,,,,,0.4651350975036621,-0.3819982409477234,-0.2896779775619507,0.4007435441017151,0.04311097785830498,0.19595301151275635
1764808581.479554,-2.9919883973464367,2.1517980944156645,2.0381623628854753,0.04720628634095192,0.03198471665382385,-0.10355506837368011,,,,,,
1764808581.488182,,,,,,,0.5034279227256775,-0.3793182075023651,-0.28089895844459534,0.41915687918663025,-0.15767991542816162,0.3974666893482208
1764808581.489606,-2.916078293098509,2.2691578149050473,2.020065711311251,-0.0847695916891098,0.029539937153458595,-0.3431093394756317,,,,,,
1764808581.498212,,,,,,,0.5211881995201111,-0.3646678924560547,-0.273997038602829,0.42310577630996704,-0.34079673886299133,0.5763530731201172
1764808581.499658,-2.783230496098101,2.503625326949358,1.8915772785641252,-0.21653613448143005,0.04610825702548027,-0.5545153021812439,,,,,,
1764808581.508242,,,,,,,0.533409059047699,-0.32143643498420715,-0.2667139172554016,0.44819462299346924,-0.5080810785293579,0.7586544156074524
1764808581.509711,-2.6539865688085555,2.7296833225667476,1.8946423652231692,-0.36507606506347656,0.07708441466093063,-0.7373323440551758,,,,,,
1764808581.518272,,,,,,,0.5574913024902344,-0.28598496317863464,-0.24997487664222717,0.49667030572891235,-0.6783409714698792,0.9271421432495117
1764808581.519763,-2.56435510546118,3.039012306588888,1.9122854278109966,-0.5224187970161438,0.11603287607431412,-0.9071652889251709,,,,,,
1764808581.528302,,,,,,,0.5863835215568542,-0.25948411226272583,-0.234287291765213,0.5550545454025269,-0.8519470691680908,1.0820115804672241
1764808581.529816,-2.504677174089849,3.3741210440337657,1.8066975397884846,-0.6727104187011719,0.14538712799549103,-1.066252589225769,,,,,,
1764808581.538332,,,,,,,0.6010499000549316,-0.2371295690536499,-0.21475446224212646,0.6181094646453857,-1.0103607177734375,1.2361682653427124
1764808581.539868,-2.423032617843151,3.6045056706786154,1.6377835731506347,-0.8187068104743958,0.1640463024377823,-1.220245361328125,,,,,,
1764808581.548362,,,,,,,0.6014959216117859,-0.22476160526275635,-0.180558443069458,0.6639070510864258,-1.1527503728866577,1.4022657871246338
1764808581.54992,-2.348316107293963,3.749387604343891,1.4933037905454636,-0.953032910823822,0.18015456199645996,-1.3762105703353882,,,,,,
1764808581.558394,,,,,,,0.6013185977935791,-0.2411506175994873,-0.1488335132598877,0.6873598098754883,-1.2774401903152466,1.5712244510650635
1764808581.559973,-2.3016461260557173,3.8676603480249643,1.327774205648899,-1.0670489072799683,0.20454485714435577,-1.533146619796753,,,,,,
1764808581.568423,,,,,,,0.6049646139144897,-0.26745355129241943,-0.11109882593154907,0.6579278707504272,-1.4113271236419678,1.7348519563674927
1764808581.570025,-2.270643085026741,3.9734196470916268,1.1046118584077804,-1.1643247604370117,0.23067240417003632,-1.7016209363937378,,,,,,
1764808581.578453,,,,,,,0.6090426445007324,-0.2762298583984375,-0.06407865881919861,0.6496607065200806,-1.5557247400283813,1.9288368225097656
1764808581.580077,-2.252891739758849,4.00511768464744,0.9054150547742843,-1.2380388975143433,0.2516448199748993,-1.8730614185333252,,,,,,
1764808581.588483,,,,,,,0.5939653515815735,-0.27857092022895813,-0.0391826331615448,0.6664045453071594,-1.653165340423584,2.1115496158599854
1764808581.59013,-2.1987556604236365,3.932546369433403,0.6950503028512001,-1.2984431982040405,0.26807376742362976,-2.047729969024658,,,,,,
1764808581.598513,,,,,,,0.5648126006126404,-0.27156615257263184,-0.024339228868484497,0.6571546196937561,-1.694406509399414,2.2766737937927246
1764808581.600182,-2.156297743922472,3.830145733144879,0.6043407254109159,-1.3600267171859741,0.2828276753425598,-2.2312965393066406,,,,,,
1764808581.608543,,,,,,,0.5601192712783813,-0.26508134603500366,0.017602354288101196,0.5576652884483337,-1.7456440925598145,2.429542064666748
1764808581.610234,-2.192933822402358,3.8105554820120333,0.633322453212738,-1.4086239337921143,0.2819715142250061,-2.4186573028564453,,,,,,
1764808581.618573,,,,,,,0.5744211077690125,-0.2614254951477051,0.05843496322631836,0.4094538688659668,-1.820409893989563,2.5812630653381348
1764808581.620287,-2.201507004958391,3.8720091908842322,0.50640521530509,-1.4349125623703003,0.278427392244339,-2.5966031551361084,,,,,,
1764808581.628603,,,,,,,0.5808425545692444,-0.2572660446166992,0.06991976499557495,0.24757711589336395,-1.8666584491729736,2.717864751815796
1764808581.630339,-2.085553644135594,3.9647196232855317,0.27041385469436646,-1.446240782737732,0.2734614312648773,-2.7532455921173096,,,,,,
1764808581.638633,,,,,,,0.5733013153076172,-0.2522103190422058,0.06379318237304688,0.10516885668039322,-1.8728440999984741,2.815640926361084
1764808581.640391,-1.8906483271509409,4.048049063879251,0.16436346372663974,-1.4730098247528076,0.26752328872680664,-2.881636142730713,,,,,,
1764808581.648663,,,,,,,0.5752224922180176,-0.23716098070144653,0.06534220278263092,-0.049374643713235855,-1.8795254230499268,2.902470588684082
1764808581.650444,-1.6940660168647765,4.169172520816326,0.2893827773247845,-1.5277494192123413,0.2629338502883911,-2.9903359413146973,,,,,,
1764808581.658693,,,,,,,0.6090993881225586,-0.20053833723068237,0.07320725917816162,-0.10788975656032562,-1.9404202699661255,3.019981861114502
1764808581.660496,-1.5936095003813504,4.286271544542909,0.4331891724467277,-1.5979437828063965,0.25315025448799133,-3.0870308876037598,,,,,,
1764808581.668723,,,,,,,0.6480992436408997,-0.14757603406906128,0.0614238977432251,-0.017834166064858437,-2.005066394805908,3.1445584297180176
1764808581.670548,-1.5592799452781676,4.327304396677017,0.471272600190714,-1.680411696434021,0.2527734041213989,-3.1796247959136963,,,,,,
1764808581.678753,,,,,,,0.6576053500175476,-0.08084911108016968,0.03199009597301483,0.2568880021572113,-2.0206456184387207,3.272707223892212
1764808581.680601,-1.6000971088349818,4.327957892149686,0.5456827482044696,-1.7707146406173706,0.2976323962211609,-3.2666101455688477,,,,,,
1764808581.688784,,,,,,,0.6548735499382019,-0.01226806640625,0.03632467985153198,0.5652250647544861,-2.0693366527557373,3.3678126335144043
1764808581.690653,-1.7608260154515505,4.338752842408418,0.5495558267781511,-1.8717483282089233,0.40604329109191895,-3.3538668155670166,,,,,,
1764808581.698814,,,,,,,0.653503954410553,0.053266286849975586,0.09597784280776978,0.8148307800292969,-2.149721384048462,3.472327470779419
1764808581.700705,-1.954419665315747,4.39401003472805,0.21635672234687953,-1.9577758312225342,0.5576494336128235,-3.4319636821746826,,,,,,
1764808581.708845,,,,,,,0.6355304718017578,0.07200759649276733,0.14010053873062134,1.00472891330719,-2.1611578464508057,3.603130340576172
1764808581.710758,-2.0044038856685162,4.366010851690173,-0.4897533191790804,-2.017364978790283,0.7015312314033508,-3.5293047428131104,,,,,,
1764808581.718874,,,,,,,0.5882859230041504,0.037675440311431885,0.19329173862934113,0.9956128001213074,-2.107008218765259,3.6707262992858887
1764808581.72081,-1.8847756357252596,4.270796327513456,-1.0770043781012295,-2.0532193183898926,0.8220799565315247,-3.6512320041656494,,,,,,
1764808581.728904,,,,,,,0.5744812488555908,-0.014491677284240723,0.2780646085739136,0.8041222095489502,-2.0646560192108154,3.725580930709839
1764808581.730862,-1.5294418563753365,4.4297155543595546,-1.4006184925854206,-2.0640006065368652,0.8816407322883606,-3.783801317214966,,,,,,
1764808581.738934,,,,,,,0.6007296442985535,-0.08946406841278076,0.3341825008392334,0.5472589731216431,-2.045194149017334,3.8312888145446777
1764808581.740915,-0.9914251127541065,4.800867080566287,-1.5065484720438718,-2.048086404800415,0.8452554941177368,-3.897547483444214,,,,,,
1764808581.748964,,,,,,,0.6275184750556946,-0.13659441471099854,0.34806501865386963,0.30105718970298767,-2.0259439945220947,3.9061439037323
1764808581.750967,-0.4235825551897287,5.1740439751207825,-1.5322498995333909,-2.0086822509765625,0.711640477180481,-3.9880130290985107,,,,,,
1764808581.758994,,,,,,,0.6345228552818298,-0.11479967832565308,0.3620145320892334,0.06639598309993744,-1.9971615076065063,3.943687677383423
1764808581.761019,-0.017614567145705223,5.383763414877653,-1.5285422771871089,-1.9596821069717407,0.49787285923957825,-4.065826892852783,,,,,,
1764808581.769024,,,,,,,0.6430580019950867,-0.04260534048080444,0.35822588205337524,-0.09244240075349808,-2.013289451599121,3.9910662174224854
1764808581.771072,0.18894670084118842,5.381686024081707,-1.4476760118365286,-1.9273377656936646,0.23893289268016815,-4.118186950683594,,,,,,
1764808581.779054,,,,,,,0.6540442705154419,0.03258270025253296,0.33537745475769043,-0.09937843680381775,-2.081416606903076,4.030394077301025
1764808581.781124,0.31927754658460616,5.215592960083485,-1.4730705653339624,-1.940146803855896,-0.006253214552998543,-4.1420698165893555,,,,,,
1764808581.789084,,,,,,,0.6491755843162537,0.11298394203186035,0.27932071685791016,0.015419255010783672,-2.1342391967773438,4.080045223236084
1764808581.791176,0.48131753579974174,4.842252399399876,-1.4893255345642566,-2.014950752258301,-0.16499999165534973,-4.139199256896973,,,,,,
1764808581.799114,,,,,,,0.6233830451965332,0.15752631425857544,0.23586225509643555,0.15119487047195435,-2.189277172088623,4.0848917961120605
1764808581.801229,0.5556026691943406,4.2700060539186,-1.4389952772527932,-2.1298112869262695,-0.22365105152130127,-4.138002872467041,,,,,,
1764808581.809145,,,,,,,0.5805304050445557,0.17027592658996582,0.23161613941192627,0.2064613252878189,-2.1966545581817627,4.09448766708374
1764808581.811281,0.43164135848283763,3.6271357278987764,-1.3352398653544484,-2.2656266689300537,-0.21056948602199554,-4.15462589263916,,,,,,
1764808581.819175,,,,,,,0.5559911131858826,0.18504858016967773,0.2239290475845337,0.2507777214050293,-2.1877455711364746,4.130307674407959
1764808581.821333,0.2365133386582136,3.1663059765934944,-1.2718471512436866,-2.396636962890625,-0.13628725707530975,-4.176901340484619,,,,,,
1764808581.829205,,,,,,,0.5566337704658508,0.2063138484954834,0.2378523349761963,0.25958532094955444,-2.1749048233032227,4.160940170288086
1764808581.831386,0.10445698429644107,3.0810759630754587,-1.316957043558359,-2.5043132305145264,-0.05030032619833946,-4.190517902374268,,,,,,
1764808581.839235,,,,,,,0.5659443736076355,0.21930670738220215,0.25994575023651123,0.16991505026817322,-2.176438570022583,4.156041145324707
1764808581.841438,0.09201368230879306,3.3639144150570033,-1.3458224880367518,-2.5730769634246826,-0.008108397014439106,-4.191412448883057,,,,,,
1764808581.849265,,,,,,,0.5844432711601257,0.21153175830841064,0.2700986862182617,0.03836102783679962,-2.2419397830963135,4.170623302459717
1764808581.85149,0.22518296634852886,3.825381002961099,-1.4222668452918528,-2.6098031997680664,-0.02711709588766098,-4.1727824211120605,,,,,,
1764808581.859296,,,,,,,0.5908387303352356,0.22010326385498047,0.2863417863845825,-0.08735769987106323,-2.323011875152588,4.18121337890625
1764808581.861543,0.5492442400783301,4.151755522069335,-1.6308523125827312,-2.63720965385437,-0.07004351913928986,-4.156466484069824,,,,,,
1764808581.869325,,,,,,,0.5783080458641052,0.26271337270736694,0.30798161029815674,-0.15900498628616333,-2.3951382637023926,4.197972297668457
1764808581.871595,1.007338136678934,4.263859221726656,-1.9106363454297184,-2.662013053894043,-0.12061899900436401,-4.1563215255737305,,,,,,
1764808581.879355,,,,,,,0.5618448257446289,0.3022400736808777,0.32805919647216797,-0.1854742169380188,-2.422804355621338,4.227415561676025
1764808581.881647,1.6832038465887307,4.22147787759304,-2.179341350379586,-2.6875929832458496,-0.212355837225914,-4.163730144500732,,,,,,
1764808581.889385,,,,,,,0.5475165247917175,0.32546359300613403,0.35601329803466797,-0.1491849273443222,-2.384291648864746,4.275472164154053
1764808581.8917,2.46274035885334,4.141633941027522,-2.111581380970031,-2.7305986881256104,-0.35838550329208374,-4.1614789962768555,,,,,,
1764808581.899415,,,,,,,0.5507582426071167,0.32687312364578247,0.3695298433303833,-0.11057709902524948,-2.3423101902008057,4.326875686645508
1764808581.901752,2.9610499459862707,4.164466535082459,-1.8555477876752613,-2.7661383152008057,-0.535144567489624,-4.143727779388428,,,,,,
1764808581.909445,,,,,,,0.5690093040466309,0.31162208318710327,0.3787130117416382,-0.15638825297355652,-2.2919795513153076,4.3384294509887695
1764808581.911804,2.9168671053886412,4.252468935923278,-1.732344601854682,-2.7841670513153076,-0.72719806432724,-4.121435165405273,,,,,,
1764808581.919475,,,,,,,0.5895658135414124,0.30127519369125366,0.3947887420654297,-0.3468379080295563,-2.2501158714294434,4.329885005950928
1764808581.921857,2.445046881252527,4.36655737965703,-1.6342583216339348,-2.7916877269744873,-0.9224154949188232,-4.120909690856934,,,,,,
1764808581.929506,,,,,,,0.6222525835037231,0.30869781970977783,0.4250086545944214,-0.6727741956710815,-2.2981512546539307,4.315657138824463
1764808581.931909,1.9080664949417112,4.683649106635153,-1.7699714449375867,-2.7504630088806152,-1.053849220275879,-4.153097152709961,,,,,,
1764808581.939536,,,,,,,0.6442476511001587,0.34321796894073486,0.46683716773986816,-0.8802063465118408,-2.3590309619903564,4.314760208129883
1764808581.941961,1.776568943506479,4.911356915286183,-2.307528315962106,-2.6751272678375244,-1.117879867553711,-4.161092758178711,,,,,,
1764808581.949566,,,,,,,0.6183405518531799,0.39071881771087646,0.4884594678878784,-0.9355939626693726,-2.3189218044281006,4.279540061950684
1764808581.952014,2.132925051641464,4.885392452946305,-2.5932155815035105,-2.6288044452667236,-1.1350739002227783,-4.087244510650635,,,,,,
1764808581.959596,,,,,,,0.5722446441650391,0.45561158657073975,0.4869873523712158,-0.8800199627876282,-2.225114107131958,4.251366138458252
1764808581.962066,2.61039292627573,4.891625794377923,-2.4282442150115964,-2.6280126571655273,-1.1141473054885864,-3.9476237297058105,,,,,,
1764808581.969626,,,,,,,0.5522938966751099,0.482002317905426,0.4440276622772217,-0.6845109462738037,-2.1533689498901367,4.229989528656006
1764808581.972118,2.6979899611860514,4.828118660107255,-2.2119955196164547,-2.6613428592681885,-1.0755836963653564,-3.811774730682373,,,,,,
1764808581.979656,,,,,,,0.553516149520874,0.4755667448043823,0.39043140411376953,-0.40670761466026306,-2.0769431591033936,4.208380699157715
1764808581.982171,2.3145716586023566,4.551518810254335,-2.087983355500549,-2.725055694580078,-1.0353620052337646,-3.7257211208343506,,,,,,
1764808581.989686,,,,,,,0.5604915618896484,0.4852283000946045,0.35908985137939453,-0.10302230715751648,-2.010658025741577,4.2160444259643555
1764808581.992223,1.7603432003706692,4.186430529609322,-1.9442567293502389,-2.798208236694336,-0.992802619934082,-3.7089154720306396,,,,,,
1764808581.999716,,,,,,,0.5704719424247742,0.4981498718261719,0.35148799419403076,0.2557207942008972,-1.968945860862732,4.226820468902588
1764808582.002275,1.285662326106429,3.992947938904166,-1.9327175365954636,-2.8532752990722656,-0.9488514065742493,-3.724381685256958,,,,,,
1764808582.009746,,,,,,,0.568101167678833,0.4934771656990051,0.3676077127456665,0.5401242971420288,-1.8909906148910522,4.227066993713379
1764808582.012328,1.0533493617475032,4.011634519195557,-1.946590579125285,-2.8918092250823975,-0.9343672394752502,-3.7214314937591553,,,,,,
1764808582.019776,,,,,,,0.5568784475326538,0.5021363496780396,0.40366828441619873,0.6687213182449341,-1.7748041152954102,4.205954551696777
1764808582.02238,1.2159656895458697,4.3900230109184974,-1.909036801278591,-2.8563296794891357,-0.9612348079681396,-3.6693382263183594,,,,,,
1764808582.029807,,,,,,,0.5633262991905212,0.4837510585784912,0.4569293260574341,0.5886384844779968,-1.664541244506836,4.181481838226318
1764808582.032432,1.7532161249697207,5.160336352285743,-2.111350933215022,-2.7268266677856445,-1.0015612840652466,-3.56896710395813,,,,,,
1764808582.039837,,,,,,,0.5691227912902832,0.43324559926986694,0.5052908658981323,0.2437094897031784,-1.571966290473938,4.083370685577393
1764808582.042485,2.486012513369322,5.935673074772954,-2.6130530853956935,-2.55829119682312,-1.1123466491699219,-3.4165613651275635,,,,,,
1764808582.049868,,,,,,,0.5514984130859375,0.39694690704345703,0.5445999503135681,-0.2065596729516983,-1.471476674079895,3.9268035888671875
1764808582.052537,2.959087706002593,6.374004870805144,-2.763325479927659,-2.4060323238372803,-1.3335071802139282,-3.244436502456665,,,,,,
1764808582.059898,,,,,,,0.5345200896263123,0.4195634126663208,0.5402771830558777,-0.627341628074646,-1.3422281742095947,3.7870774269104004
1764808582.062589,2.9821196220219135,6.253783915665745,-2.6393565704315898,-2.2840425968170166,-1.5634386539459229,-3.1197457313537598,,,,,,
1764808582.069928,,,,,,,0.5381650924682617,0.46519482135772705,0.5287587642669678,-0.9439650774002075,-1.2711519002914429,3.6447787284851074
1764808582.072642,2.6870827827244996,5.860923830997944,-2.704451266154647,-2.184481620788574,-1.6750801801681519,-3.0706965923309326,,,,,,
1764808582.079958,,,,,,,0.5438237190246582,0.49262380599975586,0.5478988289833069,-1.1852542161941528,-1.211463212966919,3.5137693881988525
1764808582.082694,2.309011686387658,5.539904409182071,-2.9401415979921817,-2.1240792274475098,-1.651070475578308,-3.07201886177063,,,,,,
1764808582.089988,,,,,,,0.5436666011810303,0.5078426003456116,0.5719701051712036,-1.386770486831665,-1.1423499584197998,3.445187568664551
1764808582.092746,1.9104215336352586,5.545228234553337,-3.2337101183027026,-2.0787627696990967,-1.5093759298324585,-3.0987813472747803,,,,,,
1764808582.100018,,,,,,,0.5524833798408508,0.4907633066177368,0.5833588242530823,-1.5407770872116089,-1.0985238552093506,3.41241717338562
1764808582.102799,1.510218100467324,5.744594622600078,-3.7137107262849804,-2.038294792175293,-1.3059486150741577,-3.1297194957733154,,,,,,
1764808582.110048,,,,,,,0.5521047115325928,0.4503575563430786,0.575692355632782,-1.6759839057922363,-1.0597797632217407,3.3701469898223877
1764808582.112851,1.2032809800177813,5.870732692828774,-4.114358396089076,-1.9996463060379028,-1.109052300453186,-3.156548023223877,,,,,,
1764808582.120078,,,,,,,0.5487802624702454,0.445601224899292,0.558483898639679,-1.716776967048645,-1.0600444078445435,3.35249400138855
1764808582.122903,1.1090323782637714,5.687143135106563,-4.25517907166481,-1.9517440795898438,-0.957951545715332,-3.172055244445801,,,,,,
1764808582.130108,,,,,,,0.5359807014465332,0.4883168339729309,0.5410475730895996,-1.6512373685836792,-1.063681721687317,3.342590093612671
1764808582.132956,1.2094704823076725,5.268259551388025,-4.235855947035551,-1.9067974090576172,-0.8731457591056824,-3.1571524143218994,,,,,,
1764808582.140138,,,,,,,0.49194014072418213,0.5386059284210205,0.5160436034202576,-1.548905849456787,-1.0409170389175415,3.323472499847412
1764808582.143008,1.4390797406658529,4.842715925258398,-4.032584952765703,-1.8956397771835327,-0.8429064154624939,-3.1329808235168457,,,,,,
1764808582.150168,,,,,,,0.43682074546813965,0.5502910614013672,0.4859222173690796,-1.4358257055282593,-0.9896852374076843,3.313467025756836
1764808582.15306,1.6648717788234353,4.41174735147059,-3.8266894552111625,-1.9070087671279907,-0.8365534543991089,-3.129115343093872,,,,,,
1764808582.160198,,,,,,,0.3990094065666199,0.5058791041374207,0.4680771827697754,-1.3670344352722168,-0.8954548835754395,3.2882354259490967
1764808582.163113,1.7965774200513958,4.1335727996468545,-3.815660696196556,-1.9088072776794434,-0.8247067928314209,-3.151031494140625,,,,,,
1764808582.170228,,,,,,,0.39744436740875244,0.4551973342895508,0.46851271390914917,-1.4160383939743042,-0.8610769510269165,3.298171281814575
1764808582.173165,1.9667443093597887,4.2229023574382065,-3.83814491520524,-1.8773503303527832,-0.8174763321876526,-3.178819179534912,,,,,,
1764808582.180259,,,,,,,0.41386693716049194,0.42045003175735474,0.48064476251602173,-1.5177947282791138,-0.8772268891334534,3.3129525184631348
1764808582.183218,2.206191655643284,4.314937667056918,-3.9049873313784595,-1.8183354139328003,-0.850050687789917,-3.1963679790496826,,,,,,
1764808582.190289,,,,,,,0.38803839683532715,0.39248305559158325,0.49400293827056885,-1.6243104934692383,-0.8405322432518005,3.3316292762756348
1764808582.19327,2.407960720917582,4.068887853768468,-3.901821560823917,-1.752458095550537,-0.9147545695304871,-3.212151288986206,,,,,,
1764808582.200319,,,,,,,0.33413344621658325,0.3930543065071106,0.4980652928352356,-1.7705581188201904,-0.7956857085227966,3.3403279781341553
1764808582.203322,2.53573662148118,3.669993749633431,-3.8767572621941566,-1.7041078805923462,-0.9768856763839722,-3.2366905212402344,,,,,,
1764808582.210349,,,,,,,0.2984611392021179,0.38692179322242737,0.4932582974433899,-1.9613877534866333,-0.7454140186309814,3.316697359085083
1764808582.213374,2.507981476332247,3.326309491544962,-3.9427743334591385,-1.7010694742202759,-1.0727161169052124,-3.2632603645324707,,,,,,
1764808582.220379,,,,,,,0.3069196939468384,0.3731249272823334,0.48186784982681274,-2.1416640281677246,-0.7074684500694275,3.307523727416992
1764808582.223427,2.4602912121355534,3.209205207121372,-3.749046243560314,-1.7268096208572388,-1.224124789237976,-3.2967872619628906,,,,,,
1764808582.230409,,,,,,,0.34583020210266113,0.3869320750236511,0.48328012228012085,-2.2327802181243896,-0.7292035818099976,3.3018312454223633
1764808582.233479,2.453396484185755,3.3227573520213363,-3.7011142795622347,-1.7053227424621582,-1.3422404527664185,-3.3228890895843506,,,,,,
1764808582.240439,,,,,,,0.3734895586967468,0.4306643307209015,0.48038625717163086,-2.3189644813537598,-0.7866016626358032,3.262556314468384
1764808582.243532,2.550576463216543,3.511017239642143,-3.8977553342983122,-1.6560344696044922,-1.4022457599639893,-3.3136374950408936,,,,,,
1764808582.250468,,,,,,,0.37104207277297974,0.4548329710960388,0.466377317905426,-2.447573661804199,-0.8278835415840149,3.219531297683716
1764808582.253584,2.6861908023208376,3.717714116707444,-3.71843015602231,-1.5947620868682861,-1.444533109664917,-3.2701258659362793,,,,,,
1764808582.260499,,,,,,,0.35281461477279663,0.4361732006072998,0.4525650143623352,-2.5128014087677,-0.8899064660072327,3.1883976459503174
1764808582.263636,2.777402812857926,3.6507401831090447,-3.404999289639294,-1.516916275024414,-1.497799038887024,-3.19225811958313,,,,,,
1764808582.270529,,,,,,,0.3074876666069031,0.45049619674682617,0.43304866552352905,-2.5439445972442627,-0.8938016295433044,3.119743824005127
1764808582.273689,2.7620260877668854,3.2394033615082503,-3.3010634066075086,-1.4525830745697021,-1.5591236352920532,-3.1093742847442627,,,,,,
1764808582.280559,,,,,,,0.25749069452285767,0.4902980923652649,0.4226457476615906,-2.5515635013580322,-0.8873924612998962,3.0441677570343018
1764808582.283741,2.611383690878749,2.784820687898993,-3.179761962755024,-1.4411770105361938,-1.6048221588134766,-3.0377519130706787,,,,,,
1764808582.290589,,,,,,,0.2275620698928833,0.4985596537590027,0.40427303314208984,-2.618269205093384,-0.870309591293335,2.970369338989258
1764808582.293793,2.4087236681140958,2.460619713437557,-3.031718350188434,-1.4709287881851196,-1.6646867990493774,-3.011932611465454,,,,,,
1764808582.300619,,,,,,,0.2355394959449768,0.46491342782974243,0.39899611473083496,-2.6554417610168457,-0.8768218159675598,2.925546169281006
1764808582.303846,2.2250351800620556,2.325008296942711,-3.0549656625241037,-1.4819146394729614,-1.7047111988067627,-3.0246944427490234,,,,,,
1764808582.31065,,,,,,,0.2476489543914795,0.4279133677482605,0.40896397829055786,-2.6893911361694336,-0.9099661707878113,2.8997344970703125
1764808582.313898,2.250010631364584,2.281470768511295,-3.333215033149719,-1.4773930311203003,-1.6975891590118408,-3.0482020378112793,,,,,,
1764808582.32068,,,,,,,0.24159449338912964,0.4305294454097748,0.394755482673645,-2.7056374549865723,-0.9587174654006958,2.911458969116211
1764808582.32395,2.521344231252372,2.29250245013535,-3.512992631368339,-1.4655539989471436,-1.67238450050354,-3.042447805404663,,,,,,
1764808582.33071,,,,,,,0.22670406103134155,0.4020116329193115,0.3880288004875183,-2.756645679473877,-0.9743800759315491,2.955644130706787
1764808582.334003,2.793068291762471,2.2282617408931253,-3.459737718781829,-1.4531545639038086,-1.634354591369629,-3.019317626953125,,,,,,
1764808582.34074,,,,,,,0.21777242422103882,0.3248720169067383,0.3900124430656433,-2.8723528385162354,-0.99402916431427,3.014263868331909
1764808582.344055,2.892055320215225,2.106578311985731,-3.2865669714823365,-1.4240360260009766,-1.5650979280471802,-3.023508310317993,,,,,,
1764808582.35077,,,,,,,0.2129286527633667,0.2739909887313843,0.38424229621887207,-2.906522750854492,-0.9533025026321411,3.0693070888519287
1764808582.354107,2.769612597373128,1.8562398615926503,-3.0039079677209255,-1.3782174587249756,-1.4698030948638916,-3.0651628971099854,,,,,,
1764808582.3608,,,,,,,0.20155584812164307,0.3388739824295044,0.35134679079055786,-2.6519057750701904,-0.8770604133605957,3.170718193054199
1764808582.36416,2.5847999275967477,1.6402981863200663,-2.5849419664159416,-1.350203514099121,-1.3690975904464722,-3.100032091140747,,,,,,
1764808582.37083,,,,,,,0.20976519584655762,0.45011740922927856,0.28587913513183594,-2.2969346046447754,-0.8373774886131287,3.204493999481201
1764808582.374212,2.4633716424942014,1.6290139912396668,-2.0977616760626434,-1.3785934448242188,-1.296746850013733,-3.1158878803253174,,,,,,
1764808582.38086,,,,,,,0.24950122833251953,0.5177411437034607,0.23411159217357635,-1.9221993684768677,-0.8718659281730652,3.2322494983673096
1764808582.384264,2.3157876102633774,1.6536358067989347,-1.6299708535730837,-1.413979411125183,-1.2309215068817139,-3.108536720275879,,,,,,
1764808582.39089,,,,,,,0.25162243843078613,0.5363100171089172,0.17823368310928345,-1.575857400894165,-0.9009093046188354,3.2295730113983154
1764808582.394317,2.269092640714347,1.4796516972899436,-1.530623175114393,-1.4246076345443726,-1.1364678144454956,-3.0785536766052246,,,,,,
1764808582.400919,,,,,,,0.17974621057510376,0.575425386428833,0.12807227671146393,-1.2650195360183716,-0.8457176685333252,3.211115837097168
1764808582.404369,2.3955364158913492,1.1219120258420705,-1.5471142911881208,-1.4172909259796143,-1.0024727582931519,-3.0370333194732666,,,,,,
1764808582.41095,,,,,,,0.10208606719970703,0.6135662794113159,0.09668536484241486,-1.0003620386123657,-0.764881432056427,3.1872942447662354
1764808582.414421,2.692527311865985,0.7877507983803749,-1.4965531477302312,-1.41603422164917,-0.8576551079750061,-2.978036880493164,,,,,,
1764808582.42098,,,,,,,0.061691999435424805,0.6124999523162842,0.08750154078006744,-0.8104928135871887,-0.6983370184898376,3.1418099403381348
1764808582.424474,3.179734490226209,0.6286755041897296,-1.4557207866042852,-1.4079490900039673,-0.717193067073822,-2.904585599899292,,,,,,
1764808582.43101,,,,,,,0.039706289768218994,0.5953829288482666,0.07916435599327087,-0.7268967032432556,-0.6500499248504639,3.075514078140259
1764808582.434526,3.719133335855603,0.5451362202376127,-1.59310681155622,-1.3810535669326782,-0.6228209733963013,-2.825610399246216,,,,,,
1764808582.441041,,,,,,,0.02244424819946289,0.5811302661895752,0.07739078998565674,-0.6961390376091003,-0.6106827855110168,3.0050501823425293
1764808582.444578,4.137006865748763,0.4251052347123623,-1.655479973360896,-1.3498204946517944,-0.5774505138397217,-2.7455618381500244,,,,,,
1764808582.451071,,,,,,,0.010755777359008789,0.5963252186775208,0.04695664346218109,-0.6993390917778015,-0.5770537257194519,2.9318268299102783
1764808582.454631,4.49691189853698,0.2616273216485977,-1.5696826813489198,-1.323843240737915,-0.5714209079742432,-2.669942617416382,,,,,,
1764808582.461101,,,,,,,0.009071111679077148,0.6385263204574585,0.014354541897773743,-0.6613591909408569,-0.581446647644043,2.879441499710083
1764808582.464683,4.837232817672192,0.15164485192894936,-1.4961036503970622,-1.2907953262329102,-0.554327666759491,-2.573763132095337,,,,,,
1764808582.471131,,,,,,,0.003178894519805908,0.6547138094902039,0.0024492889642715454,-0.5777015686035156,-0.5944228768348694,2.7829761505126953
1764808582.474735,5.15722611131072,0.08735738093554973,-1.501163856396079,-1.2634285688400269,-0.4965122938156128,-2.4643728733062744,,,,,,
1764808582.481161,,,,,,,-0.022651970386505127,0.6943824291229248,-0.026857316493988037,-0.46567490696907043,-0.5787491202354431,2.6724495887756348
1764808582.484788,5.360069235557318,0.009044891721010207,-1.4928443563401699,-1.237037181854248,-0.4288110136985779,-2.34805965423584,,,,,,
1764808582.491191,,,,,,,-0.03708481788635254,0.7623096704483032,-0.07026103138923645,-0.3639448285102844,-0.6069892644882202,2.546835422515869
1764808582.49484,5.544660079276562,-0.06859773540794849,-1.407307176569104,-1.20316481590271,-0.4008956551551819,-2.208685874938965,,,,,,
1764808582.501221,,,,,,,-0.06317013502120972,0.8080315589904785,-0.09401486814022064,-0.31359589099884033,-0.6087754368782043,2.408754825592041
1764808582.504892,5.753079542350768,-0.25364801333248616,-1.2153735688716172,-1.1677346229553223,-0.40339481830596924,-2.0455212593078613,,,,,,
1764808582.511251,,,,,,,-0.10580039024353027,0.8225044012069702,-0.09635123610496521,-0.30094462633132935,-0.6080353856086731,2.261986494064331
1764808582.514945,6.008581074595451,-0.4653688560396433,-1.135962178504467,-1.1256684064865112,-0.395194947719574,-1.872584342956543,,,,,,
1764808582.521281,,,,,,,-0.1538856029510498,0.8175820708274841,-0.09034943580627441,-0.3205496370792389,-0.5833702087402344,2.10188889503479
1764808582.524997,6.207737034761905,-0.6965770740270614,-1.3355208742529152,-1.081639289855957,-0.3678179383277893,-1.715139627456665,,,,,,
1764808582.531311,,,,,,,-0.19178158044815063,0.8170074224472046,-0.09016525745391846,-0.3304251730442047,-0.5673862099647522,1.931101679801941
1764808582.535049,6.333199982208013,-0.9369313060224056,-1.5528852758049965,-1.0401149988174438,-0.34756195545196533,-1.5749326944351196,,,,,,
1764808582.541341,,,,,,,-0.2125709056854248,0.847090482711792,-0.08919301629066467,-0.3165421783924103,-0.5592665076255798,1.7565574645996094
1764808582.545102,6.513708525049686,-1.1722130570590494,-1.7284937716454267,-1.0006474256515503,-0.3272993266582489,-1.432536244392395,,,,,,
1764808582.55137,,,,,,,-0.22730010747909546,0.9061480760574341,-0.08504417538642883,-0.250667005777359,-0.5461954474449158,1.5898030996322632
1764808582.555154,6.735702924489974,-1.2808014420717955,-1.9638485879182814,-0.9646017551422119,-0.28485146164894104,-1.2508513927459717,,,,,,
1764808582.561401,,,,,,,-0.23307675123214722,0.9250980615615845,-0.0647435188293457,-0.16308966279029846,-0.5305315256118774,1.4187936782836914
1764808582.565206,6.895435221284628,-1.1066337926894425,-2.239935812073946,-0.8980506658554077,-0.21492518484592438,-1.0345460176467896,,,,,,
1764808582.571432,,,,,,,-0.23408305644989014,0.9046855568885803,-0.031190186738967896,-0.12569834291934967,-0.5294212698936462,1.2148104906082153
1764808582.575259,6.949066858229041,-0.7085539275467395,-2.5414409706026313,-0.7808616757392883,-0.14741884171962738,-0.8142416477203369,,,,,,
1764808582.581462,,,,,,,-0.24173134565353394,0.8925101161003113,-0.015206605195999146,-0.1333455890417099,-0.5265461206436157,0.9878441691398621
1764808582.585311,6.7716895991504185,-0.46660219722688195,-2.6741771239221093,-0.655269980430603,-0.13264083862304688,-0.6140968799591064,,,,,,
1764808582.591492,,,,,,,-0.2611076831817627,0.89560866355896,-0.009043216705322266,-0.156931072473526,-0.5083183646202087,0.7932506799697876
1764808582.595363,6.522068941637873,-0.5663800837963819,-2.545921330887079,-0.5516058802604675,-0.17846983671188354,-0.4463331997394562,,,,,,
1764808582.601522,,,,,,,-0.2845485210418701,0.8992096781730652,0.010940968990325928,-0.19583670794963837,-0.4892767667770386,0.6037331223487854
1764808582.605416,6.329777606543899,-0.9175333625912666,-2.4708318953722714,-0.4630168080329895,-0.20495155453681946,-0.3059905469417572,,,,,,
1764808582.611552,,,,,,,-0.31316280364990234,0.8973209857940674,0.03786739706993103,-0.21302181482315063,-0.4195418953895569,0.35939472913742065
1764808582.615468,6.239073253268003,-1.2204483879178762,-2.609075998458266,-0.37628990411758423,-0.17828932404518127,-0.1696356236934662,,,,,,
1764808582.621582,,,,,,,-0.3247162699699402,0.9074387550354004,0.032406628131866455,-0.17171938717365265,-0.34331634640693665,0.12921959161758423
1764808582.62552,6.300066358891129,-1.1979296821177006,-2.7356325863599777,-0.29792484641075134,-0.1521456241607666,0.00871358998119831,,,,,,
1764808582.631612,,,,,,,-0.30326414108276367,0.9242426753044128,0.02054041624069214,-0.12255050241947174,-0.3231905698776245,-0.10253188014030457
1764808582.635573,6.418832439047097,-0.9052508041232824,-2.6879011133700605,-0.2178606539964676,-0.16992488503456116,0.2369678020477295,,,,,,
1764808582.641642,,,,,,,-0.27621036767959595,0.9199380278587341,0.028467416763305664,-0.10131686180830002,-0.30174359679222107,-0.3328525125980377
1764808582.645625,6.461084019321203,-0.678368048119545,-2.7612030809462067,-0.11823780834674835,-0.20041076838970184,0.4684489667415619,,,,,,
1764808582.651672,,,,,,,-0.2659109830856323,0.8990908861160278,0.06510844826698303,-0.08132877945899963,-0.25837641954421997,-0.5360676646232605
1764808582.655678,6.282380480074882,-0.5182447061806917,-3.0435920355945822,0.042573440819978714,-0.18078380823135376,0.692196786403656,,,,,,
1764808582.661702,,,,,,,-0.25860071182250977,0.8637657761573792,0.10443806648254395,-0.07886966317892075,-0.2219633013010025,-0.7481522560119629
1764808582.66573,5.912267064744234,-0.2145458370000124,-3.291970584091544,0.22744688391685486,-0.11670095473527908,0.8911322951316833,,,,,,
1764808582.671732,,,,,,,-0.2656981945037842,0.813180685043335,0.12401449680328369,-0.12398280948400497,-0.14081677794456482,-0.9597494602203369
1764808582.675782,5.483541301447152,-0.08061667450368404,-3.186395993942022,0.36610427498817444,-0.058961085975170135,1.0410568714141846,,,,,,
1764808582.681762,,,,,,,-0.27286434173583984,0.7720584869384766,0.13103556632995605,-0.17292925715446472,-0.04996437206864357,-1.150403618812561
1764808582.685834,5.070473710530996,-0.2943447653800249,-2.8417010975062844,0.45456117391586304,-0.04762054607272148,1.1448522806167603,,,,,,
1764808582.691793,,,,,,,-0.26026231050491333,0.7571991086006165,0.1266542673110962,-0.18420028686523438,0.021297555416822433,-1.3442021608352661
1764808582.695887,4.833636254484952,-0.6328583428323269,-2.576071554479003,0.5173076391220093,-0.08322856575250626,1.2190910577774048,,,,,,
1764808582.701823,,,,,,,-0.23864036798477173,0.7663260698318481,0.10273471474647522,-0.14175616204738617,0.06890368461608887,-1.5250508785247803
1764808582.705939,4.8343610616281625,-0.8666150762587785,-2.500346159148216,0.5550936460494995,-0.15331338346004486,1.3042914867401123,,,,,,
1764808582.711853,,,,,,,-0.22117042541503906,0.7733680605888367,0.0802377462387085,-0.07609511911869049,0.10659407079219818,-1.6831480264663696
1764808582.715991,5.058963890001177,-0.8892296436488628,-2.5345377670854328,0.6002053022384644,-0.22938916087150574,1.428531527519226,,,,,,
1764808582.721883,,,,,,,-0.2076101303100586,0.7636163234710693,0.11057436466217041,-0.0077119506895542145,0.17047186195850372,-1.7996926307678223
1764808582.726044,5.26879146630764,-0.6785270380735396,-2.8736376199930906,0.7387769818305969,-0.1605062335729599,1.6105008125305176,,,,,,
1764808582.731913,,,,,,,-0.18824774026870728,0.7175305485725403,0.1869356632232666,0.12104709446430206,0.27674317359924316,-1.9012751579284668
1764808582.736096,5.121504809588194,-0.014960837766528129,-3.464558270806074,0.9277366399765015,0.09031599760055542,1.8236349821090698,,,,,,
1764808582.741943,,,,,,,-0.16229087114334106,0.6542102098464966,0.1913101077079773,0.24489818513393402,0.39076003432273865,-2.0685904026031494
1764808582.746148,4.569717607028782,0.7409492997169494,-3.5325253070950504,1.0579290390014648,0.2872178554534912,2.0023772716522217,,,,,,
1764808582.751973,,,,,,,-0.11104869842529297,0.6605671048164368,0.17313385009765625,0.3538832664489746,0.4637620747089386,-2.2372231483459473
1764808582.756201,3.87765538007766,1.1455541827142237,-2.816940750259161,1.1262681484222412,0.29046115279197693,2.1337735652923584,,,,,,
1764808582.762003,,,,,,,-0.019538819789886475,0.7011716365814209,0.13376927375793457,0.3923301100730896,0.43670356273651123,-2.402292490005493
1764808582.766253,3.3833675958067175,1.2364210330754517,-2.0865753883987663,1.1539716720581055,0.13182677328586578,2.228045701980591,,,,,,
1764808582.772033,,,,,,,0.03658640384674072,0.6843346357345581,0.10791391134262085,0.34009164571762085,0.36830613017082214,-2.5961079597473145
1764808582.776306,3.1389447991982102,0.9432061485081911,-1.728826949122548,1.1358329057693481,-0.09478454291820526,2.287492275238037,,,,,,
1764808582.782063,,,,,,,0.03012913465499878,0.5993443727493286,0.1171218752861023,0.1882462352514267,0.36557289958000183,-2.7419111728668213
1764808582.786358,3.185577371035516,0.387339275419712,-1.7637217368930578,1.1280697584152222,-0.2640092670917511,2.3247692584991455,,,,,,
1764808582.792093,,,,,,,-0.00472027063369751,0.48276907205581665,0.18025368452072144,-0.06018221378326416,0.41627365350723267,-2.858860492706299
1764808582.79641,3.407537868206203,0.0661269613802433,-2.3011790930658576,1.195296049118042,-0.301179975271225,2.355433940887451,,,,,,
1764808582.802123,,,,,,,-0.0254056453704834,0.3853633403778076,0.24560508131980896,-0.3092944920063019,0.5107836127281189,-2.942605495452881
1764808582.806463,3.5840403902769085,0.27841245223283767,-2.79926188570559,1.308775544166565,-0.27383196353912354,2.4089150428771973,,,,,,
1764808582.812153,,,,,,,0.0010933876037597656,0.35354936122894287,0.26306024193763733,-0.47842520475387573,0.6005460023880005,-3.018636703491211
1764808582.816515,3.5861309328153728,0.9606061961203813,-2.825585244485736,1.425483226776123,-0.2710312008857727,2.4938607215881348,,,,,,
1764808582.822183,,,,,,,0.06730514764785767,0.3816598057746887,0.2542310059070587,-0.48253998160362244,0.6887642741203308,-3.0718226432800293
1764808582.826567,3.328388635906577,1.8219617444157599,-2.516480132347345,1.5329673290252686,-0.31262683868408203,2.6025257110595703,,,,,,
1764808582.832214,,,,,,,0.13739275932312012,0.42439308762550354,0.20600050687789917,-0.4073277711868286,0.6876968741416931,-3.122772455215454
1764808582.83662,2.8793998367816207,2.449467620304227,-2.0974667847692965,1.593356966972351,-0.4091612994670868,2.694525718688965,,,,,,
1764808582.842244,,,,,,,0.1778600811958313,0.4547255039215088,0.16018635034561157,-0.26146504282951355,0.7255222797393799,-3.1973302364349365
1764808582.846672,2.31283095241487,2.4755571703284978,-1.5883552331149577,1.5789302587509155,-0.5277813673019409,2.7240545749664307,,,,,,
1764808582.852274,,,,,,,0.2017022967338562,0.46278077363967896,0.14044226706027985,-0.14361271262168884,0.7896714806556702,-3.224555730819702
1764808582.856724,1.8518911648638545,2.220913716217875,-1.246861178547144,1.5677956342697144,-0.5863935947418213,2.7112295627593994,,,,,,
1764808582.862304,,,,,,,0.24681085348129272,0.41138988733291626,0.1630476862192154,-0.0453098900616169,0.782823383808136,-3.221226930618286
1764808582.866777,1.538495515924692,2.240598075374961,-1.4374369418948887,1.6274129152297974,-0.4945397973060608,2.7063307762145996,,,,,,
1764808582.872334,,,,,,,0.2704384922981262,0.2836642265319824,0.22067439556121826,-0.04628221318125725,0.862099826335907,-3.2678029537200928
1764808582.876829,1.216195552778989,2.4738603032827378,-1.6414333278298376,1.6955496072769165,-0.2840556800365448,2.7051804065704346,,,,,,
1764808582.882364,,,,,,,0.2689231038093567,0.2163671851158142,0.21943292021751404,-0.03354651480913162,0.9874423146247864,-3.2366676330566406
1764808582.886881,0.8254661965295672,2.877808768197894,-1.4760498734056948,1.7636617422103882,-0.07048559933900833,2.703265428543091,,,,,,
1764808582.892394,,,,,,,0.2889798879623413,0.22002536058425903,0.1930776983499527,0.0660538449883461,1.054076910018921,-3.231097936630249
1764808582.896934,0.5059867706973106,3.1394214767992494,-1.1449056556776165,1.8052641153335571,0.039843298494815826,2.713423252105713,,,,,,
1764808582.902424,,,,,,,0.3187710642814636,0.26347842812538147,0.14518359303474426,0.164781853556633,1.1684871912002563,-3.2614405155181885
1764808582.906986,0.30105091195516287,3.144606770482659,-0.5582724729254841,1.7765167951583862,0.024680592119693756,2.7262790203094482,,,,,,
1764808582.912454,,,,,,,0.389525830745697,0.2947375774383545,0.07236814498901367,0.29764240980148315,1.1531052589416504,-3.2374444007873535
1764808582.917038,0.2339609142290428,3.2710569754004477,-0.005199614469707012,1.722704529762268,-0.08918490260839462,2.7497358322143555,,,,,,
1764808582.922484,,,,,,,0.4681360721588135,0.24491570889949799,0.031811490654945374,0.4001259505748749,0.9999765157699585,-3.294445276260376
1764808582.927091,0.374784366283752,3.193360572257638,0.2846095533072948,1.6661025285720825,-0.2704494893550873,2.7754271030426025,,,,,,
1764808582.932514,,,,,,,0.46207886934280396,0.19262148439884186,0.039454758167266846,0.37852025032043457,0.9360917806625366,-3.3503236770629883
1764808582.937143,0.5677998144011944,2.840978043928742,0.3872825767964124,1.6405770778656006,-0.42801448702812195,2.7782857418060303,,,,,,
1764808582.942544,,,,,,,0.41166406869888306,0.15626417100429535,0.08550631999969482,0.2618616819381714,0.9346576929092407,-3.310818672180176
1764808582.947195,0.6865760506249964,2.641088508790731,0.06734422821551561,1.742542028427124,-0.438582181930542,2.7539467811584473,,,,,,
1764808582.952575,,,,,,,0.3572917580604553,0.062404170632362366,0.20618224143981934,0.1200914978981018,1.05837082862854,-3.275527000427246
1764808582.957248,0.5423376755602658,2.912932688549161,-0.5060659003481268,1.909868597984314,-0.2442987710237503,2.7316064834594727,,,,,,
1764808582.962605,,,,,,,0.33713650703430176,-0.04748249053955078,0.2166585773229599,-0.010878395289182663,1.2641633749008179,-3.22780704498291
1764808582.9673,0.17725326737277208,3.6858249404937027,-0.508008851109445,2.0433783531188965,-0.01334885973483324,2.6926424503326416,,,,,,
1764808582.972635,,,,,,,0.40025168657302856,-0.04211336374282837,0.14252716302871704,-0.08200077712535858,1.360924243927002,-3.1292078495025635
1764808582.977352,-0.26168358188048,4.3868291833132504,0.18651275169253348,2.097320318222046,0.08302268385887146,2.645171880722046,,,,,,
1764808582.982665,,,,,,,0.503264307975769,0.058420777320861816,0.04886364936828613,0.10381593555212021,1.3487451076507568,-2.9907705783843994
1764808582.987405,-0.5701118176706135,4.401721632018685,1.0760285188063978,2.0704286098480225,0.05629268288612366,2.599212169647217,,,,,,
1764808582.992695,,,,,,,0.556928813457489,0.1309913843870163,-0.039517998695373535,0.42932453751564026,1.2969473600387573,-2.900578737258911
1764808582.997457,-0.6957644424699246,3.740452602738142,1.6697297402486204,1.977726936340332,0.06368614733219147,2.5442616939544678,,,,,,
1764808583.002725,,,,,,,0.5367951989173889,0.15218690037727356,-0.07530969381332397,0.726081907749176,1.2836744785308838,-2.842475652694702
1764808583.007509,-0.7465744461223482,2.8607676170259713,1.795097995148599,1.8600664138793945,0.20106668770313263,2.481316089630127,,,,,,
1764808583.012755,,,,,,,0.48642081022262573,0.11060202121734619,-0.08413487672805786,0.9516841173171997,1.2526901960372925,-2.7465946674346924
1764808583.017562,-0.7524825011223554,2.227518229049444,1.513733707372844,1.7407197952270508,0.40517428517341614,2.429716110229492,,,,,,
1764808583.022785,,,,,,,0.43693333864212036,0.017126083374023438,-0.07943952828645706,1.138368010520935,1.2290130853652954,-2.643543243408203
1764808583.027614,-0.7454575709216297,1.8791496125370264,1.0851043901875614,1.6305501461029053,0.5929699540138245,2.3823983669281006,,,,,,
1764808583.032815,,,,,,,0.37834250926971436,-0.04263308644294739,-0.03569961339235306,1.2561460733413696,1.2435920238494873,-2.522120475769043
1764808583.037666,-0.8500532330363988,1.667237046650052,0.6866564223848283,1.5292696952819824,0.7545444965362549,2.3070900440216064,,,,,,
1764808583.042845,,,,,,,0.3549526333808899,-0.051723986864089966,0.004543904215097427,1.3881255388259888,1.266765832901001,-2.399913787841797
