timestamp,phone_accel_x,phone_accel_y,phone_accel_z,phone_gyro_x,phone_gyro_y,phone_gyro_z,watch_accel_x,watch_accel_y,watch_accel_z,watch_gyro_x,watch_gyro_y,watch_gyro_z
1764808625.408237,-1.8773235661536454,0.7408516845613717,1.933741034424305,-0.11149533092975616,0.10201790183782578,-0.09628338366746902,,,,,,
1764808625.409896,,,,,,,0.15638989210128784,-0.30055105686187744,-0.013353340327739716,0.9443537592887878,-0.009184719994664192,0.5233231782913208
1764808625.41829,-2.0341741700321436,0.6012754560887813,1.9596236636996267,-0.13546670973300934,0.05988721922039986,-0.1889912188053131,,,,,,
1764808625.419926,,,,,,,0.15905702114105225,-0.28091758489608765,-0.022978834807872772,0.8987234234809875,-0.030436744913458824,0.5536925792694092
1764808625.428343,-2.030143307080865,0.49334465820193285,1.9424580093652009,-0.17543944716453552,0.04639199376106262,-0.27008238434791565,,,,,,
1764808625.429956,,,,,,,0.15450406074523926,-0.2775416970252991,-0.02807670831680298,0.831000030040741,-0.04276345297694206,0.5890707969665527
1764808625.438395,-1.925829530647397,0.4041267440915107,1.8245394859492778,-0.22412894666194916,0.06612148880958557,-0.3271091878414154,,,,,,
1764808625.439986,,,,,,,0.14675354957580566,-0.2920410633087158,-0.022931642830371857,0.7300126552581787,-0.054757531732320786,0.5989841222763062
1764808625.448447,-1.8092033851295708,0.3136328186959028,1.6789561260163783,-0.2835316061973572,0.1130143254995346,-0.36677905917167664,,,,,,
1764808625.450016,,,,,,,0.13128024339675903,-0.29398971796035767,-0.020142078399658203,0.620514452457428,-0.04852227121591568,0.5957174301147461
1764808625.4585,-1.6876315999031066,0.33279169267416,1.5795646084159611,-0.3514579236507416,0.16712097823619843,-0.39854151010513306,,,,,,
1764808625.460046,,,,,,,0.12030750513076782,-0.27319663763046265,-0.01830732822418213,0.4976399540901184,-0.02162354625761509,0.6101906299591064
1764808625.468552,-1.5932675550758837,0.37680794453322886,1.3826508742183445,-0.3978423774242401,0.22649173438549042,-0.43051064014434814,,,,,,
1764808625.470077,,,,,,,0.11801612377166748,-0.24252909421920776,-0.008882582187652588,0.40787407755851746,-0.019359860569238663,0.6326180696487427
1764808625.478604,-1.4626695828288794,0.42284547308683396,1.1121120049048214,-0.42426198720932007,0.2824609875679016,-0.46091994643211365,,,,,,
1764808625.480107,,,,,,,0.11810016632080078,-0.2158845067024231,-0.0005309581756591797,0.34049344062805176,-0.02994113229215145,0.6597434282302856
1764808625.488657,-1.281397069877386,0.5060708687841892,0.9446633615791797,-0.43683889508247375,0.33053088188171387,-0.48656830191612244,,,,,,
1764808625.490137,,,,,,,0.10848337411880493,-0.19024121761322021,0.004599869251251221,0.2867752015590668,-0.01572810672223568,0.7086434364318848
1764808625.498709,-1.1019289759993554,0.5713450127273798,0.8680717048078775,-0.44653040170669556,0.36584892868995667,-0.5110925436019897,,,,,,
1764808625.500167,,,,,,,0.09924942255020142,-0.17648953199386597,0.015708312392234802,0.23494024574756622,0.002120398683473468,0.7545640468597412
1764808625.508761,-0.952684170949459,0.5671341170340776,0.7230792965054511,-0.4474886357784271,0.3877970576286316,-0.5405009388923645,,,,,,
1764808625.510197,,,,,,,0.09120070934295654,-0.16388463973999023,0.027774035930633545,0.18322500586509705,0.008768181316554546,0.7819398045539856
1764808625.518814,-0.831539086702466,0.49656128216087814,0.5888210481852293,-0.435499370098114,0.3952139616012573,-0.5730000138282776,,,,,,
1764808625.520227,,,,,,,0.08404809236526489,-0.15109002590179443,0.035471975803375244,0.16884660720825195,0.012954138219356537,0.8141337037086487
1764808625.528866,-0.7542050871312618,0.38781040006279943,0.47931496380567545,-0.4256576597690582,0.39102163910865784,-0.6119951009750366,,,,,,
1764808625.530257,,,,,,,0.07252764701843262,-0.1372849941253662,0.036091096699237823,0.1595550775527954,0.02278226613998413,0.8501319885253906
1764808625.538919,-0.6884469590634107,0.3053361149936914,0.4249146805763244,-0.4313480257987976,0.3732762932777405,-0.6561663150787354,,,,,,
1764808625.540287,,,,,,,0.05775785446166992,-0.11981016397476196,0.036492347717285156,0.16131941974163055,0.04426918551325798,0.8841131329536438
1764808625.548971,-0.5963716096952557,0.21033260321915148,0.3322457492291927,-0.44314154982566833,0.35675564408302307,-0.7059789299964905,,,,,,
1764808625.550317,,,,,,,0.047556400299072266,-0.10669362545013428,0.03643084317445755,0.17010082304477692,0.06609059125185013,0.9201722145080566
1764808625.559023,-0.46328006706684827,0.1807043576747179,0.20344167466163635,-0.4585031270980835,0.3470143973827362,-0.7505480647087097,,,,,,
1764808625.560347,,,,,,,0.042041659355163574,-0.08958262205123901,0.034110553562641144,0.16994716227054596,0.08806353062391281,0.9476038217544556
1764808625.569076,-0.29986937402039765,0.20012100580632686,0.09117140453206375,-0.47385677695274353,0.34455418586730957,-0.7879247069358826,,,,,,
1764808625.570377,,,,,,,0.04040932655334473,-0.0637769103050232,0.030203528702259064,0.17511716485023499,0.1029503345489502,0.9771102070808411
1764808625.579128,-0.1310045072212815,0.2124883199483156,-0.023563264683354644,-0.47344887256622314,0.34175506234169006,-0.8095096349716187,,,,,,
1764808625.580407,,,,,,,0.04065585136413574,-0.04458296298980713,0.03339868783950806,0.17381088435649872,0.1018962562084198,1.0018028020858765
1764808625.58918,0.014279869765043259,0.2377373274952173,-0.14486911071632055,-0.462586373090744,0.3294416666030884,-0.8146833777427673,,,,,,
1764808625.590437,,,,,,,0.031867146492004395,-0.02632242441177368,0.039772555232048035,0.14909742772579193,0.11001916229724884,1.0057793855667114
1764808625.599233,0.09260609524399041,0.23681086030006407,-0.2517430564939976,-0.4427236020565033,0.3112216293811798,-0.8137122988700867,,,,,,
1764808625.600467,,,,,,,0.019716858863830566,-0.008656919002532959,0.04434400796890259,0.08589822798967361,0.12487587332725525,0.9939249753952026
1764808625.609285,0.11657003141641616,0.23350012831687925,-0.32993575525376945,-0.41604700684547424,0.28788328170776367,-0.809420108795166,,,,,,
1764808625.610497,,,,,,,0.006554663181304932,0.007388710975646973,0.05169636011123657,-0.009617527946829796,0.14098002016544342,0.9684887528419495
1764808625.619337,0.1777656738743186,0.20091303296685217,-0.4144587164809927,-0.3832813799381256,0.2618643343448639,-0.8015075325965881,,,,,,
1764808625.620528,,,,,,,-0.0023658275604248047,0.025986135005950928,0.056355006992816925,-0.11493329703807831,0.14714710414409637,0.9387229084968567
1764808625.62939,0.24362229388058185,0.1354687931537628,-0.5042459914445877,-0.3423115909099579,0.2373369038105011,-0.7866388559341431,,,,,,
1764808625.630558,,,,,,,-0.00921565294265747,0.04294776916503906,0.0640527680516243,-0.20597143471240997,0.14878255128860474,0.8953381776809692
1764808625.639442,0.29847412026971576,0.07136193942427635,-0.6251157658815384,-0.30077090859413147,0.21429139375686646,-0.7624298334121704,,,,,,
1764808625.640588,,,,,,,-0.02373868227005005,0.060323357582092285,0.06591290235519409,-0.275809109210968,0.15417198836803436,0.8365296721458435
1764808625.649494,0.35167379553765055,-0.017125322324037552,-0.6792950267713517,-0.2757856845855713,0.18498757481575012,-0.7315456867218018,,,,,,
1764808625.650618,,,,,,,-0.038475632667541504,0.07705831527709961,0.05834168195724487,-0.3381778299808502,0.17481520771980286,0.7712133526802063
1764808625.659547,0.41932577452808617,-0.013819851037859916,-0.63285249761343,-0.2715851962566376,0.14800865948200226,-0.6985344290733337,,,,,,
1764808625.660648,,,,,,,-0.04352879524230957,0.10618811845779419,0.04525953531265259,-0.36066529154777527,0.20963658392429352,0.7206727266311646
1764808625.669599,0.5172773224532604,0.07765607113242148,-0.7182862170100212,-0.27542972564697266,0.1160975992679596,-0.6564372777938843,,,,,,
1764808625.670678,,,,,,,-0.02544116973876953,0.13359403610229492,0.02802456170320511,-0.31348222494125366,0.19134944677352905,0.6764298677444458
1764808625.679651,0.5978098258048296,0.16962942143082618,-0.9318974035084246,-0.26266953349113464,0.10632877051830292,-0.6046839952468872,,,,,,
1764808625.680708,,,,,,,0.0002766847610473633,0.16134905815124512,0.01886851340532303,-0.2544149160385132,0.1286035031080246,0.6140386462211609
1764808625.689704,0.6781696029379963,0.22208441581130026,-1.0749826630152761,-0.2387452870607376,0.11731591075658798,-0.5393177270889282,,,,,,
1764808625.690738,,,,,,,0.008480489253997803,0.18030056357383728,0.02614510804414749,-0.19558264315128326,0.0709596499800682,0.5674718022346497
1764808625.699756,0.7245712886288762,0.23036767551004886,-1.169175881320238,-0.20499682426452637,0.1410093456506729,-0.46593794226646423,,,,,,
1764808625.700768,,,,,,,-0.00649183988571167,0.18117201328277588,0.04036916047334671,-0.1805477738380432,0.03951863944530487,0.5212041139602661
1764808625.709809,0.6944029448583722,0.1303279231339693,-1.210142682480812,-0.15877074003219604,0.16211356222629547,-0.4024737477302551,,,,,,
1764808625.710798,,,,,,,-0.03323549032211304,0.1725604236125946,0.055359311401844025,-0.20995761454105377,0.027929358184337616,0.46154800057411194
1764808625.719861,0.6238830092161893,0.0040104046851396555,-1.1958208002049475,-0.11505305767059326,0.1691976636648178,-0.35631904006004333,,,,,,
1764808625.720828,,,,,,,-0.06053948402404785,0.14838072657585144,0.06625908613204956,-0.2620477080345154,0.03986804559826851,0.3807452917098999
1764808625.729913,0.5906123155161738,-0.11960603811144828,-1.1157003117203712,-0.07460390031337738,0.15659292042255402,-0.32390543818473816,,,,,,
1764808625.730858,,,,,,,-0.07988977432250977,0.13983121514320374,0.07603894919157028,-0.3563273251056671,0.06488551199436188,0.2912217974662781
1764808625.739966,0.6074278412386774,-0.21453239299654958,-1.0574643227856606,-0.03247557207942009,0.12293872237205505,-0.3020235002040863,,,,,,
1764808625.740888,,,,,,,-0.0892404317855835,0.1492539942264557,0.07958675175905228,-0.4469512403011322,0.08075688779354095,0.21862323582172394
1764808625.750018,0.6866685512140392,-0.2753951502382755,-1.0636896270412952,0.013894856907427311,0.08478095382452011,-0.28147536516189575,,,,,,
1764808625.750919,,,,,,,-0.08935719728469849,0.1523473858833313,0.07754594832658768,-0.510208010673523,0.08788536489009857,0.15809831023216248
1764808625.76007,0.7925166976079344,-0.311359028545022,-1.10575532935448,0.060159359127283096,0.055511295795440674,-0.25346118211746216,,,,,,
1764808625.760949,,,,,,,-0.08971959352493286,0.1491907238960266,0.07008583098649979,-0.531502366065979,0.10492027550935745,0.09374648332595825
1764808625.770123,0.9361123908549547,-0.27298692005276676,-1.0502128903526813,0.08035331219434738,0.027188846841454506,-0.2179335653781891,,,,,,
1764808625.770979,,,,,,,-0.09261459112167358,0.15121296048164368,0.055242426693439484,-0.517479419708252,0.14763472974300385,0.037854526191949844
1764808625.780175,1.0456950476020574,-0.1731049885869026,-0.9947956121005117,0.09771839529275894,0.007769852876663208,-0.17816779017448425,,,,,,
1764808625.781009,,,,,,,-0.08129119873046875,0.1652001142501831,0.03741180896759033,-0.4660157263278961,0.1696673184633255,0.006231886334717274
1764808625.790227,1.09826460827291,-0.16028934615552423,-1.0685258880913258,0.12433988600969315,0.001252894988283515,-0.13789376616477966,,,,,,
1764808625.791039,,,,,,,-0.060104310512542725,0.17804256081581116,0.023201890289783478,-0.3517927825450897,0.1438559591770172,-0.006137764547020197
1764808625.80028,1.093755314154923,-0.21476503270864486,-1.1118483124673366,0.14779648184776306,0.004272653255611658,-0.09325066208839417,,,,,,
1764808625.801069,,,,,,,-0.0496901273727417,0.17820167541503906,0.018401972949504852,-0.22331497073173523,0.11746669560670853,-0.017314517870545387
1764808625.810332,1.0057637269690631,-0.3047708823263645,-1.0930291187722234,0.1635635644197464,0.02443729154765606,-0.05628739297389984,,,,,,
1764808625.811099,,,,,,,-0.05918610095977783,0.17330148816108704,0.025616280734539032,-0.12712793052196503,0.11869467794895172,-0.02190427854657173
1764808625.820384,0.8419941374823451,-0.41862639408707614,-1.0693735178966075,0.17507854104042053,0.05403832718729973,-0.03634724020957947,,,,,,
1764808625.821129,,,,,,,-0.07763296365737915,0.15746325254440308,0.036297015845775604,-0.053932808339595795,0.13798236846923828,-0.021685631945729256
1764808625.830437,0.697253073592484,-0.5095721549034118,-1.0398515092056244,0.19137191772460938,0.08953109383583069,-0.03463448956608772,,,,,,
1764808625.831159,,,,,,,-0.0937468409538269,0.1332976520061493,0.04425739496946335,-0.014629466459155083,0.16525553166866302,-0.034707292914390564
1764808625.840489,0.6021294425696134,-0.49964638869464395,-1.0275426472526044,0.2130255550146103,0.12703318893909454,-0.04576091095805168,,,,,,
1764808625.841189,,,,,,,-0.10422557592391968,0.11854484677314758,0.050138406455516815,-0.009376647882163525,0.2013150006532669,-0.056009385734796524
1764808625.850541,0.583961333194375,-0.48959378123581404,-0.9758640440721065,0.23898620903491974,0.15255388617515564,-0.053579144179821014,,,,,,
1764808625.851219,,,,,,,-0.10634744167327881,0.11682584881782532,0.05294715613126755,-0.019028689712285995,0.23884879052639008,-0.06773641705513
1764808625.860594,0.6849582401648163,-0.4465665404140949,-0.9526935963649302,0.2716783583164215,0.16145096719264984,-0.05011171102523804,,,,,,
1764808625.861249,,,,,,,-0.10146427154541016,0.11773034930229187,0.049210429191589355,-0.005831660702824593,0.26413658261299133,-0.08305837959051132
1764808625.870646,0.8467562373176216,-0.426398197132349,-0.9236696003239602,0.30320870876312256,0.15854251384735107,-0.03576959669589996,,,,,,
1764808625.871279,,,,,,,-0.09522587060928345,0.11784937977790833,0.04193747043609619,0.008385177701711655,0.2816615104675293,-0.11356429010629654
1764808625.880697,0.9634601242467761,-0.4243593847811222,-0.8189584220707417,0.33192476630210876,0.1499311774969101,-0.020562946796417236,,,,,,
1764808625.881309,,,,,,,-0.08947211503982544,0.11989232897758484,0.03786909952759743,0.0015805348521098495,0.3004050850868225,-0.14543381333351135
1764808625.890751,1.0097510430395602,-0.45978082677423954,-0.7991173379819839,0.3607341945171356,0.1420956403017044,0.0021171406842768192,,,,,,
1764808625.89134,,,,,,,-0.08678275346755981,0.12375128269195557,0.038775745779275894,-0.00676669692620635,0.31350597739219666,-0.16622570157051086
1764808625.900803,0.9696399819254875,-0.48170565833449364,-0.855259496442601,0.39261144399642944,0.147073894739151,0.027468303218483925,,,,,,
1764808625.90137,,,,,,,-0.08865797519683838,0.11915820837020874,0.03523636236786842,-0.008655942976474762,0.31789886951446533,-0.18206138908863068
1764808625.910856,0.8712234468370675,-0.5400573095381259,-0.9126865801472216,0.4285111725330353,0.1641102284193039,0.05129159241914749,,,,,,
1764808625.9114,,,,,,,-0.09578746557235718,0.11308735609054565,0.03471500054001808,-0.036692697554826736,0.32656267285346985,-0.2151392549276352
1764808625.920908,0.7527204015314578,-0.6407043801575899,-0.9098995067119597,0.455990731716156,0.19351471960544586,0.06831105798482895,,,,,,
1764808625.92143,,,,,,,-0.10763639211654663,0.11021488904953003,0.03877783194184303,-0.0878157988190651,0.3439512550830841,-0.23596996068954468
1764808625.93096,0.6519158022627234,-0.7228121700018644,-0.9502128123998641,0.4790803790092468,0.23691390454769135,0.07291508466005325,,,,,,
1764808625.93146,,,,,,,-0.11840349435806274,0.10352137684822083,0.045556485652923584,-0.13267379999160767,0.36164793372154236,-0.24357515573501587
1764808625.941013,0.5964873450294137,-0.7749959462255239,-1.062633907443285,0.5018203258514404,0.29737141728401184,0.06351252645254135,,,,,,
1764808625.94149,,,,,,,-0.12633490562438965,0.10040289163589478,0.050912436097860336,-0.1698632389307022,0.3862587511539459,-0.2593490481376648
1764808625.951065,0.6407347752958535,-0.7219564299553632,-1.1530500914275645,0.5230401754379272,0.36646825075149536,0.0551193431019783,,,,,,
1764808625.95152,,,,,,,-0.12935656309127808,0.10694211721420288,0.05622458457946777,-0.23060490190982819,0.4143524467945099,-0.2909233570098877
1764808625.961117,0.7851707187592982,-0.6342243704885244,-1.1752747827172279,0.554955005645752,0.41714927554130554,0.0584738627076149,,,,,,
1764808625.96155,,,,,,,-0.12848997116088867,0.1268778145313263,0.056546032428741455,-0.29904866218566895,0.4378148913383484,-0.3306958079338074
1764808625.97117,1.0271738870054483,-0.5379454319506883,-1.132575458675623,0.5961157083511353,0.4337429106235504,0.08403008431196213,,,,,,
1764808625.97158,,,,,,,-0.12148177623748779,0.1442480981349945,0.053296804428100586,-0.3627617359161377,0.4609367251396179,-0.3546294569969177
1764808625.981222,1.2045561145201324,-0.46650633563697336,-1.135206976222992,0.6378105282783508,0.4267004430294037,0.11482799798250198,,,,,,
1764808625.98161,,,,,,,-0.11203193664550781,0.1520138382911682,0.05509233474731445,-0.447652667760849,0.46911928057670593,-0.3784636855125427
1764808625.991274,1.2953914006993175,-0.32312486966252324,-1.2105822429418562,0.682841956615448,0.4280456006526947,0.13492527604103088,,,,,,
1764808625.99164,,,,,,,-0.10104668140411377,0.1522831916809082,0.06127089262008667,-0.5400103330612183,0.4729238748550415,-0.4331495463848114
1764808626.001327,1.3810627282440662,-0.21855682620704173,-1.2809668617665766,0.737480878829956,0.42617368698120117,0.15399934351444244,,,,,,
1764808626.00167,,,,,,,-0.09583693742752075,0.1536046266555786,0.0736684799194336,-0.6220106482505798,0.48951297998428345,-0.491684228181839
1764808626.011379,1.496590557131171,-0.21207681653797625,-1.276930153596401,0.801291823387146,0.41110819578170776,0.18169115483760834,,,,,,
1764808626.0117,,,,,,,-0.09513801336288452,0.16664671897888184,0.08255064487457275,-0.7046184539794922,0.5138923525810242,-0.5478793382644653
1764808626.021431,1.531839272905886,-0.21853344533145427,-1.2351660645782947,0.8682128190994263,0.402385413646698,0.22096645832061768,,,,,,
1764808626.021731,,,,,,,-0.09558582305908203,0.19053614139556885,0.08485019207000732,-0.7771109342575073,0.5365742444992065,-0.6012099385261536
1764808626.031484,1.5078876116931437,-0.182058110371232,-1.2781938899219036,0.9261611104011536,0.4170919358730316,0.27587181329727173,,,,,,
1764808626.031761,,,,,,,-0.09647142887115479,0.21013420820236206,0.08413684368133545,-0.8434131741523743,0.5616726279258728,-0.669511079788208
1764808626.041536,1.4025406928196549,-0.0965565864354372,-1.313961953395605,0.9805139303207397,0.4610983431339264,0.3307199776172638,,,,,,
1764808626.041791,,,,,,,-0.09340733289718628,0.22600966691970825,0.08211719989776611,-0.9329550862312317,0.5993593335151672,-0.7446314096450806
1764808626.051588,1.307219785659015,0.044294484278559684,-1.3437614638537168,1.035346508026123,0.5194045305252075,0.3862820267677307,,,,,,
1764808626.051821,,,,,,,-0.08560025691986084,0.23815667629241943,0.08245241641998291,-0.994405210018158,0.6427709460258484,-0.8000597953796387
1764808626.061641,1.2574772651076316,0.18534955313205717,-1.3609095825314521,1.0879026651382446,0.5790004134178162,0.44291672110557556,,,,,,
1764808626.061851,,,,,,,-0.07070165872573853,0.24546706676483154,0.08416402339935303,-1.0430766344070435,0.672151505947113,-0.860565185546875
1764808626.071693,1.3167989303871988,0.33233576560020445,-1.3760668196529149,1.1409029960632324,0.6267248392105103,0.50136798620224,,,,,,
1764808626.071881,,,,,,,-0.05740112066268921,0.26753854751586914,0.08795153349637985,-1.1323474645614624,0.6874220371246338,-0.9360270500183105
1764808626.081746,1.3711258561193942,0.34982933671474453,-1.4732628730356692,1.1975069046020508,0.6645818948745728,0.5550373792648315,,,,,,
1764808626.081911,,,,,,,-0.044763922691345215,0.27597928047180176,0.09760261327028275,-1.173996090888977,0.7008060216903687,-1.0063501596450806
1764808626.091798,1.509408829911053,0.3874409822285175,-1.49786072319746,1.2465192079544067,0.6861705183982849,0.6012024879455566,,,,,,
1764808626.091941,,,,,,,-0.03178298473358154,0.25535959005355835,0.10675168037414551,-1.2740103006362915,0.7058327794075012,-1.1026912927627563
1764808626.10185,1.722105531913042,0.4535813876122236,-1.4292466211766004,1.2903146743774414,0.6641004681587219,0.644332766532898,,,,,,
1764808626.101971,,,,,,,-0.022620320320129395,0.2526024580001831,0.11578488349914551,-1.4114893674850464,0.7236593961715698,-1.2111802101135254
1764808626.111903,1.9781734658688306,0.5340566078186035,-1.3881769441634415,1.3447803258895874,0.600360095500946,0.6999073624610901,,,,,,
1764808626.112001,,,,,,,-0.01851809024810791,0.2656061053276062,0.12753701210021973,-1.606089472770691,0.7464163899421692,-1.3105124235153198
1764808626.121955,2.24049724534899,0.687437489759922,-1.45080671107769,1.4158705472946167,0.5175292491912842,0.7780396342277527,,,,,,
1764808626.122031,,,,,,,-0.013215184211730957,0.28872358798980713,0.13547790050506592,-1.8143236637115479,0.762043833732605,-1.4191627502441406
1764808626.132007,2.5025720185041425,0.8880389725595712,-1.5173288092553614,1.4953818321228027,0.42461100220680237,0.8755451440811157,,,,,,
1764808626.132061,,,,,,,-0.004905641078948975,0.313088059425354,0.14640963077545166,-1.9863148927688599,0.8019318580627441,-1.4964826107025146
1764808626.14206,2.755830155736208,1.0806874505281447,-1.6396581348508596,1.589767575263977,0.3439396917819977,0.9957053065299988,,,,,,
1764808626.142091,,,,,,,0.0039041638374328613,0.3400641679763794,0.17169329524040222,-2.1064226627349854,0.8516647815704346,-1.5553765296936035
1764808626.152112,2.872310755303502,1.2572615765303372,-1.7900673075050115,1.7040654420852661,0.3213633596897125,1.1237609386444092,,,,,,
1764808626.152122,,,,,,,0.00871419906616211,0.36993521451950073,0.20571374893188477,-2.1753532886505127,0.8999660015106201,-1.6343458890914917
1764808626.162152,,,,,,,0.010277211666107178,0.3893359899520874,0.23769448697566986,-2.240328311920166,0.9652097225189209,-1.736757755279541
1764808626.162164,2.798383349305391,1.384216808360815,-1.9909242263704536,1.8547106981277466,0.3279765248298645,1.2766801118850708,,,,,,
1764808626.172182,,,,,,,0.012146472930908203,0.40147125720977783,0.25683915615081787,-2.3748795986175537,1.0517821311950684,-1.861825704574585
1764808626.172217,2.4998019692689177,1.4582470902115106,-1.6810269409410654,1.8642767667770386,0.6384579539299011,1.4171645641326904,,,,,,
1764808626.182212,,,,,,,0.009144902229309082,0.42346978187561035,0.25702032446861267,-2.431748628616333,1.2307885885238647,-1.9612748622894287
1764808626.182269,1.8177143161043523,1.1614052473187446,-1.4042131560765205,1.98191237449646,0.854671061038971,1.5735050439834595,,,,,,
1764808626.192242,,,,,,,0.02186673879623413,0.45846420526504517,0.2264961302280426,-2.320737600326538,1.462072730064392,-2.020341396331787
1764808626.192321,1.9459791692286728,1.22579384059906,-1.7165892527095972,2.21767258644104,0.7704012393951416,1.7894231081008911,,,,,,
1764808626.202272,,,,,,,0.04048269987106323,0.5233243703842163,0.17579177021980286,-2.1847872734069824,1.5638643503189087,-2.157116174697876
1764808626.202374,2.0921832914084195,1.6534943525016308,-1.1716145066440105,2.311469554901123,0.6539998054504395,1.9624266624450684,,,,,,
1764808626.212302,,,,,,,0.05917561054229736,0.5715663433074951,0.15452253818511963,-1.908124327659607,1.6551204919815063,-2.330857276916504
1764808626.212426,1.7946493745982646,1.5593962651342153,-0.7701756864622235,2.346219539642334,0.5463966131210327,2.0342700481414795,,,,,,
1764808626.222332,,,,,,,0.09830421209335327,0.5408550500869751,0.14905455708503723,-1.517135739326477,1.7446823120117188,-2.4284965991973877
1764808626.222478,2.9583050311923027,1.405854639673233,-1.1641260505847633,2.3971643447875977,0.1939879059791565,2.0879480838775635,,,,,,
1764808626.232362,,,,,,,0.1419200897216797,0.5001097321510315,0.18051907420158386,-1.3323804140090942,1.7714004516601562,-2.481520652770996
1764808626.232531,3.968104005026817,1.3727981732457875,-0.7499035905450582,2.2688169479370117,0.07351913303136826,2.1369025707244873,,,,,,
1764808626.242392,,,,,,,0.15402644872665405,0.46469348669052124,0.2268885374069214,-1.2000916004180908,1.8841853141784668,-2.50518536567688
1764808626.242583,4.467497880265117,1.4274784424602984,-0.7563800930827855,2.1693429946899414,0.01831207610666752,2.2541732788085938,,,,,,
1764808626.252422,,,,,,,0.17347604036331177,0.4379281997680664,0.22512215375900269,-1.0224835872650146,2.000401258468628,-2.4835498332977295
1764808626.252636,4.715970536786317,1.7191484356731175,-1.1306737167075276,2.123090982437134,-0.004136746749281883,2.437948226928711,,,,,,
1764808626.262452,,,,,,,0.19450139999389648,0.4585053324699402,0.21367862820625305,-0.9796557426452637,2.0650546550750732,-2.4981231689453125
1764808626.262688,4.059108802554011,2.198583226466179,-1.1672928440526127,2.1406733989715576,-0.060466330498456955,2.608397960662842,,,,,,
1764808626.272483,,,,,,,0.1931440830230713,0.49551159143447876,0.25600630044937134,-0.9241499900817871,2.1914234161376953,-2.564052104949951
1764808626.27274,3.1328724935472008,2.5053666176587344,-1.3103127832382917,2.197540283203125,-0.07135313004255295,2.715085506439209,,,,,,
1764808626.282513,,,,,,,0.20080986618995667,0.49041658639907837,0.2854178547859192,-0.8476781249046326,2.324615001678467,-2.6028592586517334
1764808626.282793,2.468108023366332,2.559237324056029,-1.3827487816348671,2.250009298324585,0.0007136047934181988,2.7720859050750732,,,,,,
1764808626.292543,,,,,,,0.23680374026298523,0.4478485584259033,0.3076106905937195,-0.7739146947860718,2.4144253730773926,-2.666215419769287
1764808626.292845,2.161847194743156,2.612321263989806,-1.5014271835073827,2.2989988327026367,0.1191219612956047,2.8069381713867188,,,,,,
1764808626.302573,,,,,,,0.2701171338558197,0.4145592451095581,0.3474527597427368,-0.665550947189331,2.5640649795532227,-2.6854498386383057
1764808626.302897,2.166045815476775,2.7639631933093067,-1.548098333789408,2.352778911590576,0.20128688216209412,2.8503003120422363,,,,,,
1764808626.312603,,,,,,,0.2908320724964142,0.4210691452026367,0.3735974431037903,-0.5191982388496399,2.7083816528320312,-2.7067978382110596
1764808626.31295,2.3417653704762458,2.949706714195013,-1.4320885666042567,2.4029245376586914,0.23845292627811432,2.9097912311553955,,,,,,
1764808626.322633,,,,,,,0.3084162473678589,0.44076383113861084,0.3791433572769165,-0.30703964829444885,2.826028823852539,-2.7373569011688232
1764808626.323002,2.4032348614394663,3.151667794910073,-1.5084452455759048,2.4501945972442627,0.2665548622608185,2.9846668243408203,,,,,,
1764808626.332663,,,,,,,0.32929468154907227,0.4333510994911194,0.3777701258659363,-0.054577890783548355,2.9352450370788574,-2.7395215034484863
1764808626.333054,2.315799739092588,3.244174229171872,-1.7356953735873102,2.508371114730835,0.3382618725299835,3.0665295124053955,,,,,,
1764808626.342693,,,,,,,0.3480750620365143,0.4081118106842041,0.3817700743675232,0.1758931428194046,3.031184434890747,-2.758275032043457
1764808626.343107,2.005327430254221,3.29189430398494,-1.8648834790363906,2.550346851348877,0.42541274428367615,3.1366729736328125,,,,,,
1764808626.352723,,,,,,,0.3661426603794098,0.3765850067138672,0.39586514234542847,0.37524399161338806,3.116499900817871,-2.7631871700286865
1764808626.353159,1.6282278092980385,3.093333971624076,-1.7808143259912728,2.569361925125122,0.5016738772392273,3.185638427734375,,,,,,
1764808626.362753,,,,,,,0.3810522258281708,0.3270604610443115,0.41774940490722656,0.4882235527038574,3.1917569637298584,-2.78544282913208
1764808626.363211,1.3032991050839424,2.914735938578844,-1.9530670816630125,2.6160497665405273,0.6144276261329651,3.2045063972473145,,,,,,
1764808626.372783,,,,,,,0.38628822565078735,0.28132951259613037,0.4411199688911438,0.5194962620735168,3.2754979133605957,-2.8188774585723877
1764808626.373264,1.0497983912676572,3.0268200567528605,-2.213366954100132,2.684450626373291,0.746853768825531,3.2109808921813965,,,,,,
1764808626.382813,,,,,,,0.4023429751396179,0.25108617544174194,0.47702544927597046,0.5514198541641235,3.370098352432251,-2.8185977935791016
1764808626.383316,1.0816980888754129,3.309498057475686,-2.3448273883953688,2.7555036544799805,0.8486001491546631,3.2343592643737793,,,,,,
1764808626.392844,,,,,,,0.4297749996185303,0.2426416277885437,0.5118062496185303,0.5706225037574768,3.442091226577759,-2.8128244876861572
1764808626.393368,1.309920569050312,3.577594282877445,-2.428129648721218,2.8260855674743652,0.8920412659645081,3.286254644393921,,,,,,
1764808626.402874,,,,,,,0.45984888076782227,0.2354462742805481,0.5215932726860046,0.5983598232269287,3.4998607635498047,-2.7971112728118896
1764808626.403421,1.4705489379018544,3.7065640694007276,-2.4557290187865495,2.896651268005371,0.8885320425033569,3.3403213024139404,,,,,,
1764808626.412904,,,,,,,0.47732001543045044,0.20456039905548096,0.503241240978241,0.651965856552124,3.5520949363708496,-2.7712717056274414
1764808626.413473,1.4530676417469977,3.6575630148664113,-2.3378642713844773,2.9414947032928467,0.8639976382255554,3.378397226333618,,,,,,
1764808626.422934,,,,,,,0.484236478805542,0.1776139736175537,0.46940308809280396,0.7135826349258423,3.5938923358917236,-2.768690586090088
1764808626.423525,1.2033493690788746,3.465173480094969,-2.0819056430220604,2.941685199737549,0.844398021697998,3.3803272247314453,,,,,,
1764808626.432964,,,,,,,0.49130886793136597,0.1660032868385315,0.45789241790771484,0.7334133386611938,3.6372733116149902,-2.770087718963623
1764808626.433578,0.8630360487282276,3.4072663577884432,-2.122517054873705,2.944958209991455,0.852013111114502,3.3484275341033936,,,,,,
1764808626.442994,,,,,,,0.5107322931289673,0.15759491920471191,0.4821353554725647,0.6952118873596191,3.6515376567840576,-2.7754833698272705
1764808626.44363,0.7013759987413882,3.549669334119558,-2.39630886156857,2.989837408065796,0.8596144914627075,3.329728841781616,,,,,,
1764808626.453024,,,,,,,0.5326716899871826,0.1402326226234436,0.5230151414871216,0.6207999587059021,3.7065322399139404,-2.755124807357788
1764808626.453683,0.7667267150521277,3.888843421307206,-2.6017911021471023,3.067148447036743,0.8691827058792114,3.339580535888672,,,,,,
1764808626.463054,,,,,,,0.5415849685668945,0.11476480960845947,0.5356644988059998,0.539957582950592,3.771686315536499,-2.7254486083984375
1764808626.463735,0.824847480109334,4.1422219700485465,-2.4771739578753706,3.136568546295166,0.8787083029747009,3.365626335144043,,,,,,
1764808626.473084,,,,,,,0.5502890348434448,0.10738486051559448,0.5172662138938904,0.49903005361557007,3.8186981678009033,-2.710388660430908
1764808626.473787,0.7780167553514241,4.203190233491361,-2.1573183191418646,3.1783931255340576,0.8731468319892883,3.3851771354675293,,,,,,
1764808626.483114,,,,,,,0.5655632615089417,0.13372677564620972,0.4803478717803955,0.5323984026908875,3.845496416091919,-2.7007641792297363
1764808626.48384,0.6657657561779022,4.0671255202710626,-1.9853040484011173,3.1783087253570557,0.8494345545768738,3.395322322845459,,,,,,
1764808626.493144,,,,,,,0.5737341046333313,0.16750651597976685,0.44933468103408813,0.6083005666732788,3.8579952716827393,-2.7090845108032227
1764808626.493892,0.6045651452839375,3.883009308326244,-1.9310954883515834,3.157456636428833,0.8153876662254333,3.402113914489746,,,,,,
1764808626.503174,,,,,,,0.57723069190979,0.17741239070892334,0.43880724906921387,0.6657800674438477,3.875988721847534,-2.716383934020996
1764808626.503944,0.5370698181599378,3.867694542555511,-1.9383987971022725,3.1390037536621094,0.793263852596283,3.416780948638916,,,,,,
1764808626.513205,,,,,,,0.5908955931663513,0.15974783897399902,0.43336009979248047,0.6443364024162292,3.859951972961426,-2.739450454711914
1764808626.513997,0.40232758571505545,4.013010483723878,-1.9870237118005751,3.137272357940674,0.7988106608390808,3.429356336593628,,,,,,
1764808626.523235,,,,,,,0.6031858921051025,0.12730920314788818,0.4463779628276825,0.6120985746383667,3.864598512649536,-2.7346270084381104
1764808626.524049,0.2923316719919443,4.1090339861959215,-2.085967777894437,3.145822525024414,0.8132534027099609,3.4437270164489746,,,,,,
1764808626.533265,,,,,,,0.6031927466392517,0.09980744123458862,0.4613315463066101,0.535783588886261,3.8636398315429688,-2.7587685585021973
1764808626.534101,0.2760486457109451,4.129158782596886,-2.1597446695059537,3.1455836296081543,0.8059669733047485,3.450132369995117,,,,,,
1764808626.543295,,,,,,,0.595762312412262,0.11272841691970825,0.4951055347919464,0.44584038853645325,3.9025633335113525,-2.779710531234741
1764808626.544154,0.4094108219742775,4.128477814595401,-2.2382708014711734,3.1581482887268066,0.7457066774368286,3.474111557006836,,,,,,
1764808626.553325,,,,,,,0.597501814365387,0.1389772891998291,0.47517213225364685,0.4449306130409241,3.912503957748413,-2.7714016437530518
1764808626.554206,0.5866261684894561,4.175763005122542,-2.046249223229289,3.138017177581787,0.6666568517684937,3.514232635498047,,,,,,
1764808626.563355,,,,,,,0.6116222739219666,0.12677276134490967,0.41167452931404114,0.417631596326828,3.8752243518829346,-2.806338310241699
1764808626.564258,0.49885260796844955,4.119285915619135,-1.74640089199692,3.08650803565979,0.5982962846755981,3.526183843612671,,,,,,
1764808626.573385,,,,,,,0.6185488104820251,0.1024012565612793,0.4171552360057831,0.31759703159332275,3.8829774856567383,-2.843384027481079
1764808626.574311,0.2917787142843008,4.023993357770145,-1.8016262278735637,3.058675765991211,0.5620696544647217,3.490342378616333,,,,,,
1764808626.583415,,,,,,,0.6198330521583557,0.09564739465713501,0.47362062335014343,0.1647917777299881,3.927382230758667,-2.851793050765991
1764808626.584363,0.3163175277352333,4.2163028130427,-2.079164527620375,3.113442897796631,0.5309441685676575,3.4689619541168213,,,,,,
1764808626.593445,,,,,,,0.6279385089874268,0.06437927484512329,0.5123253464698792,-0.051545873284339905,3.976804256439209,-2.837501049041748
1764808626.594415,0.422985173818469,4.6824674956351515,-2.121699601010978,3.1980011463165283,0.5107425451278687,3.480717182159424,,,,,,
1764808626.603475,,,,,,,0.6314910054206848,0.017812132835388184,0.5292128324508667,-0.26244744658470154,4.095228672027588,-2.8160805702209473
1764808626.604468,0.3455827851861715,4.953881467282772,-1.9130530511826276,3.267322540283203,0.48507824540138245,3.4926974773406982,,,,,,
1764808626.613505,,,,,,,0.636955201625824,0.04245036840438843,0.49043893814086914,-0.24143573641777039,4.173916339874268,-2.7219297885894775
1764808626.61452,0.15651508831381797,4.9192812785446645,-1.4795621193103492,3.3044774532318115,0.45086008310317993,3.510953664779663,,,,,,
1764808626.623535,,,,,,,0.6493138670921326,0.0967627763748169,0.3844648599624634,-0.06481728702783585,4.125544548034668,-2.6879913806915283
1764808626.624573,-0.20009587136507034,4.53203961828053,-1.1208755224011837,3.3002474308013916,0.4432137906551361,3.5160114765167236,,,,,,
1764808626.633566,,,,,,,0.6116248369216919,0.1620585322380066,0.2927238941192627,0.22859887778759003,4.111311912536621,-2.6880204677581787
1764808626.634625,-0.6461930407017469,3.6105391056239604,-0.7783803279668092,3.2176296710968018,0.4564521014690399,3.4869041442871094,,,,,,
1764808626.643596,,,,,,,0.5677475333213806,0.22742509841918945,0.2454993724822998,0.5157347917556763,4.1175408363342285,-2.7101075649261475
1764808626.644677,-0.9962456647783517,2.927660302081704,-0.36190263634622094,3.0722198486328125,0.5403172373771667,3.440608263015747,,,,,,
1764808626.653625,,,,,,,0.5985267758369446,0.22763484716415405,0.22083473205566406,0.6555688977241516,4.040553569793701,-2.748229742050171
1764808626.65473,-0.9569313069999218,3.2434850778639315,-0.6079875940132886,2.952803134918213,0.7235761284828186,3.4103174209594727,,,,,,
1764808626.663656,,,,,,,0.6738926768302917,0.10491770505905151,0.21830636262893677,0.5482187271118164,3.8900392055511475,-2.7219314575195312
1764808626.664782,-0.8107353681266307,3.7888328950256107,-0.9295400267273187,2.896639347076416,0.841376781463623,3.3947339057922363,,,,,,
1764808626.673686,,,,,,,0.6960114240646362,-0.041472554206848145,0.22248244285583496,0.33081912994384766,3.7397537231445312,-2.702012062072754
1764808626.674834,-0.627442163002491,3.781487792959809,-0.9814397253125905,2.863548994064331,0.8134724497795105,3.3391332626342773,,,,,,
1764808626.683716,,,,,,,0.6264076232910156,-0.10708007216453552,0.26386553049087524,0.1573147028684616,3.734055995941162,-2.623375654220581
1764808626.684887,-0.2563046653211117,3.461346323022246,-0.9554209024369716,2.8328428268432617,0.7084794640541077,3.2348175048828125,,,,,,
1764808626.693746,,,,,,,0.5519271492958069,-0.07517480850219727,0.28220677375793457,0.032797522842884064,3.6979904174804688,-2.5501654148101807
1764808626.694939,0.08021569248735905,3.4779923373967407,-1.0040426022648812,2.803607702255249,0.5964583158493042,3.136521100997925,,,,,,
1764808626.703776,,,,,,,0.5454456210136414,-0.03695353865623474,0.27497386932373047,-0.05317198112607002,3.6395413875579834,-2.449010133743286
1764808626.704991,0.31237960376441476,3.777593123608827,-0.8947534485716372,2.758042573928833,0.46003228425979614,3.0816760063171387,,,,,,
1764808626.713806,,,,,,,0.5842117667198181,-0.02057349681854248,0.20755380392074585,-0.1609937995672226,3.4793848991394043,-2.389874219894409
1764808626.715044,0.31025428217351436,3.9929637209951876,-0.751630852729082,2.6613101959228516,0.35343918204307556,3.0421886444091797,,,,,,
1764808626.723836,,,,,,,0.6228017210960388,-0.018111467361450195,0.18148007988929749,-0.21483546495437622,3.3700695037841797,-2.296921730041504
1764808626.725096,0.059009238329529756,3.939892640542984,-0.6439689349114894,2.5503573417663574,0.2509801983833313,2.983686685562134,,,,,,
1764808626.733866,,,,,,,0.6289886236190796,-0.0381506085395813,0.15786761045455933,-0.20577608048915863,3.2168829441070557,-2.2057723999023438
1764808626.735148,-0.4811217209666967,3.726265087431669,-0.6404840154051781,2.4468133449554443,0.22070562839508057,2.8903608322143555,,,,,,
1764808626.743897,,,,,,,0.599778413772583,-0.05312195420265198,0.14519867300987244,-0.18950895965099335,3.14009952545166,-2.125338554382324
1764808626.745201,-1.1443094433501362,3.597003916746378,-0.6742657273672521,2.360781192779541,0.26790934801101685,2.77512788772583,,,,,,
1764808626.753927,,,,,,,0.5762472748756409,-0.06080237030982971,0.08990615606307983,-0.17014630138874054,3.039623260498047,-2.0417897701263428
1764808626.755253,-1.7455439829066395,3.7587341093599793,-0.3249494547411799,2.2456376552581787,0.37772223353385925,2.6385340690612793,,,,,,
1764808626.763957,,,,,,,0.6079370975494385,-0.058797985315322876,0.08677425980567932,-0.11805778741836548,2.9326012134552,-1.9612092971801758
1764808626.765305,-1.9972130973815916,3.895636150187254,0.009150397922098636,2.1574182510375977,0.449314147233963,2.51288104057312,,,,,,
1764808626.773987,,,,,,,0.6446526050567627,-0.05549493432044983,0.048160552978515625,-0.009612737223505974,2.8257856369018555,-1.8227276802062988
1764808626.775358,-1.8965695338934658,4.223059593826532,0.21348960594534871,2.087911605834961,0.4666088819503784,2.3926875591278076,,,,,,
1764808626.784017,,,,,,,0.65057373046875,-0.09581848978996277,-0.03257521986961365,0.07546327263116837,2.6769909858703613,-1.6961557865142822
1764808626.78541,-1.9612065489768982,4.257891837754846,0.678541358859837,1.982538104057312,0.4885360300540924,2.242746114730835,,,,,,
1764808626.794047,,,,,,,0.641789972782135,-0.16215243935585022,-0.07693734765052795,0.11960951238870621,2.5601696968078613,-1.5723936557769775
1764808626.795462,-2.1317194752439854,3.914055019453168,1.0248702862381935,1.8482913970947266,0.47235482931137085,2.0761830806732178,,,,,,
1764808626.804076,,,,,,,0.6573881506919861,-0.1780778467655182,-0.09067285060882568,0.22002533078193665,2.380528450012207,-1.4086486101150513
1764808626.805515,-2.1383567213013768,3.8641508785992857,0.9112538439303636,1.7084707021713257,0.424071729183197,1.9267311096191406,,,,,,
1764808626.814107,,,,,,,0.6619960069656372,-0.17505034804344177,-0.10358366370201111,0.3230957090854645,2.1520333290100098,-1.3041770458221436
1764808626.815567,-2.1793661925598977,3.7625545444309707,0.5152011007010936,1.5801645517349243,0.3608267903327942,1.7548032999038696,,,,,,
1764808626.824137,,,,,,,0.612453043460846,-0.19675105810165405,-0.10053902864456177,0.31405025720596313,1.9936386346817017,-1.1832932233810425
1764808626.825619,-2.2083540943741795,3.5245530130416154,0.1653109737098217,1.4626144170761108,0.33988049626350403,1.5771206617355347,,,,,,
1764808626.834167,,,,,,,0.5638532042503357,-0.21160027384757996,-0.049896419048309326,0.21490073204040527,1.844865083694458,-1.0846571922302246
1764808626.835672,-2.0959154636740682,3.5494799490272997,0.03031681233048439,1.3674557209014893,0.3357504606246948,1.4270484447479248,,,,,,
1764808626.844197,,,,,,,0.5648306012153625,-0.2355593591928482,-0.01555284857749939,0.04641292244195938,1.7054251432418823,-0.9619342088699341
1764808626.845724,-1.915316319939494,3.79670406679213,-0.0012485387563705443,1.2958990335464478,0.2937239110469818,1.2895665168762207,,,,,,
1764808626.854227,,,,,,,0.5759726166725159,-0.24630381166934967,-0.044187307357788086,-0.1795806884765625,1.5785620212554932,-0.8596594333648682
1764808626.855777,-2.227742685455084,3.7465439053505656,0.39147856718152757,1.2005321979522705,0.21056565642356873,1.1096611022949219,,,,,,
1764808626.864258,,,,,,,0.5787427425384521,-0.22734534740447998,-0.0737525224685669,-0.14193743467330933,1.4506595134735107,-0.6968582272529602
1764808626.865829,-1.5332020856916904,3.9690187817841767,0.7523693961367011,1.076923131942749,0.19048050045967102,1.0747014284133911,,,,,,
1764808626.874288,,,,,,,0.5740708112716675,-0.14821551740169525,-0.19343507289886475,0.09988325834274292,1.2164738178253174,-0.703898012638092
1764808626.875881,-1.1520730630889535,4.3009711010247464,1.2943074048548937,0.9094682931900024,0.13930360972881317,0.9905297160148621,,,,,,
1764808626.884318,,,,,,,0.5922920107841492,-0.1178501695394516,-0.2705867290496826,0.18246760964393616,1.0351461172103882,-0.5329380035400391
1764808626.885934,-2.169388111642003,4.050878734347224,1.875425623577833,0.725686252117157,0.09971178323030472,0.8299739360809326,,,,,,
1764808626.894348,,,,,,,0.6589338779449463,-0.14337250590324402,-0.2791867256164551,0.28651419281959534,0.8591203093528748,-0.4336296617984772
1764808626.895986,-2.4267241658374665,4.109682220971584,1.8956652785301207,0.5336348414421082,0.10245489329099655,0.664164125919342,,,,,,
1764808626.904378,,,,,,,0.687991201877594,-0.11553902924060822,-0.30871403217315674,0.43652448058128357,0.5794172883033752,-0.3747625946998596
1764808626.906038,-2.551941321828961,4.24904392991066,1.8513322158068417,0.34739044308662415,0.13498274981975555,0.49056997895240784,,,,,,
1764808626.914408,,,,,,,0.6836129426956177,-0.1055564433336258,-0.3116200566291809,0.497956782579422,0.3461425006389618,-0.2590892016887665
1764808626.916091,-2.4904426047712565,4.181583089578152,1.6985536836728452,0.1788022220134735,0.1633552610874176,0.30906569957733154,,,,,,
1764808626.924438,,,,,,,0.6563503742218018,-0.16008275747299194,-0.28024834394454956,0.45879101753234863,0.1639079749584198,-0.13961739838123322
1764808626.926143,-2.1825421922475097,4.173013998675346,1.6333023360833525,0.016843508929014206,0.17928241193294525,0.1348123997449875,,,,,,
1764808626.934468,,,,,,,0.6456052660942078,-0.19845658540725708,-0.26099079847335815,0.43860316276550293,-0.014000247232615948,0.0370083749294281
1764808626.936195,-1.871394614496082,4.4261575696170326,1.7867904777914285,-0.1461949497461319,0.18651317059993744,-0.027692895382642746,,,,,,
1764808626.944498,,,,,,,0.6705522537231445,-0.19772227108478546,-0.27060961723327637,0.4377482831478119,-0.23361755907535553,0.21286116540431976
1764808626.946248,-1.7833834458269178,4.599993210566043,1.839601153741777,-0.3005339205265045,0.17619235813617706,-0.20955510437488556,,,,,,
1764808626.954528,,,,,,,0.6913537979125977,-0.18934109807014465,-0.27468013763427734,0.4616174101829529,-0.4534252882003784,0.3880600035190582
1764808626.9563,-1.8270600904680787,4.514728417995572,1.7600941940456627,-0.4437376856803894,0.1401033252477646,-0.40525349974632263,,,,,,
1764808626.964558,,,,,,,0.6753664612770081,-0.20169824361801147,-0.2667531371116638,0.5074477791786194,-0.6858491897583008,0.572066068649292
1764808626.966352,-1.9339546771749854,4.205722674578428,1.5914941156625746,-0.5850280523300171,0.10734683275222778,-0.6091378927230835,,,,,,
1764808626.974589,,,,,,,0.6330556273460388,-0.20987747609615326,-0.26490914821624756,0.5179129838943481,-0.9147140979766846,0.7224164009094238
1764808626.976405,-1.9594084135137497,3.875792216554284,1.3084066573560238,-0.728874146938324,0.0769665539264679,-0.8103727102279663,,,,,,
1764808626.984619,,,,,,,0.5956944823265076,-0.2232377529144287,-0.251051664352417,0.5009731650352478,-1.1307367086410522,0.8911044597625732
1764808626.986457,-1.9543384167730806,3.554668165320158,1.1008055249273776,-0.8770177960395813,0.04107331857085228,-1.0036412477493286,,,,,,
1764808626.994649,,,,,,,0.5723055005073547,-0.23998960852622986,-0.22213858366012573,0.44170087575912476,-1.3522685766220093,1.0380891561508179
1764808626.996509,-1.918853700285405,3.238815917009115,0.8053422769114374,-1.018841028213501,0.019313696771860123,-1.1820951700210571,,,,,,
1764808627.004679,,,,,,,0.542640209197998,-0.25590163469314575,-0.1860741376876831,0.3896954655647278,-1.5462439060211182,1.1850082874298096
1764808627.006562,-1.900980043812096,2.86155321444571,0.5444146279647946,-1.160751223564148,0.01677127368748188,-1.353592872619629,,,,,,
1764808627.014709,,,,,,,0.5040730237960815,-0.2562747597694397,-0.14222174882888794,0.3425818681716919,-1.7123806476593018,1.3255891799926758
1764808627.016614,-1.9440587225601076,2.6770886274546384,0.37487931455820794,-1.291732668876648,0.03673379495739937,-1.5367892980575562,,,,,,
1764808627.024739,,,,,,,0.48411357402801514,-0.23662830889225006,-0.09384399652481079,0.3277709484100342,-1.8610374927520752,1.4532827138900757
1764808627.026666,-1.942476714065671,2.7762486743867396,0.18110826230049132,-1.3892550468444824,0.057023968547582626,-1.7164523601531982,,,,,,
1764808627.034769,,,,,,,0.48902958631515503,-0.2268756926059723,-0.06378322839736938,0.32237106561660767,-1.9916088581085205,1.5913491249084473
1764808627.036719,-1.8786331874474882,3.0306998207956553,0.10669599539488553,-1.4654667377471924,0.05937926843762398,-1.8783025741577148,,,,,,
1764808627.044799,,,,,,,0.506094753742218,-0.2054150104522705,-0.055041611194610596,0.30498969554901123,-2.1089255809783936,1.7174417972564697
1764808627.046771,-1.8186241244256496,3.289855783894658,0.22813538641333578,-1.539968729019165,0.03917497396469116,-2.019526243209839,,,,,,
1764808627.054829,,,,,,,0.5216492414474487,-0.18508967757225037,-0.05348891019821167,0.33572107553482056,-2.2282235622406006,1.8373597860336304
1764808627.056823,-1.7193179470211266,3.278786692869663,0.3754828334093094,-1.6104921102523804,0.010890071280300617,-2.147679328918457,,,,,,
1764808627.064859,,,,,,,0.5101500153541565,-0.15931954979896545,-0.06083577871322632,0.3848246932029724,-2.3137593269348145,1.951627492904663
1764808627.066876,-1.6313894881993531,3.162391433498263,0.5388496873140335,-1.6998660564422607,-0.007014686241745949,-2.26587176322937,,,,,,
1764808627.074889,,,,,,,0.5099738836288452,-0.11713224649429321,-0.0678170919418335,0.48523059487342834,-2.384633779525757,2.0550084114074707
1764808627.076928,-1.674234650452435,3.2550498434513804,0.7013377125576138,-1.8212426900863647,-0.016285602003335953,-2.383052349090576,,,,,,
1764808627.084919,,,,,,,0.5459480881690979,-0.09744653105735779,-0.07153722643852234,0.6185540556907654,-2.466383934020996,2.1742749214172363
1764808627.08698,-1.7533362442180513,3.5117829633176325,0.7325823072575032,-1.9560837745666504,-0.0022134575992822647,-2.498185157775879,,,,,,
1764808627.09495,,,,,,,0.5997798442840576,-0.09272804856300354,-0.08209693431854248,0.735139787197113,-2.593815565109253,2.278379440307617
1764808627.097032,-1.8691814684912562,3.739723703941703,0.5516989397540688,-2.081019401550293,0.03265807405114174,-2.618374824523926,,,,,,
1764808627.10498,,,,,,,0.6192330121994019,-0.11301305890083313,-0.044792383909225464,0.8190850019454956,-2.7190163135528564,2.375561237335205
1764808627.107085,-1.9449705767080188,3.60020709670186,0.1977821875952184,-2.176750659942627,0.08924491703510284,-2.7539350986480713,,,,,,
1764808627.11501,,,,,,,0.5821959376335144,-0.12604421377182007,0.0009812116622924805,0.8681995868682861,-2.724799633026123,2.513955593109131
1764808627.117137,-1.970018800985813,3.474572884342074,0.10925649353265762,-2.263085126876831,0.1432490050792694,-2.8849270343780518,,,,,,
1764808627.12504,,,,,,,0.5664367079734802,-0.10436704754829407,0.011133730411529541,0.8758987784385681,-2.7417349815368652,2.633716106414795
1764808627.127189,-2.0198130517244337,3.7085371230393647,0.2849894925355911,-2.358186960220337,0.19831864535808563,-3.0135834217071533,,,,,,
1764808627.13507,,,,,,,0.6089800596237183,-0.10180038213729858,0.04454877972602844,0.8528364896774292,-2.8373982906341553,2.7417380809783936
1764808627.137241,-1.9971236655324696,3.9918578055799006,0.18376681398525832,-2.444308280944824,0.24142509698867798,-3.143557548522949,,,,,,
1764808627.1451,,,,,,,0.6496788263320923,-0.14447540044784546,0.06954872608184814,0.7992047071456909,-2.907285213470459,2.9232537746429443
1764808627.147294,-1.8849796338647602,4.154557135486603,-0.10394435859918594,-2.491990804672241,0.263132780790329,-3.2739627361297607,,,,,,
1764808627.15513,,,,,,,0.6551030874252319,-0.17584830522537231,0.07090820372104645,0.7586363554000854,-3.02681040763855,3.094526767730713
1764808627.157346,-1.7372388036370277,4.102100387540459,-0.4530487420402467,-2.5136609077453613,0.25482964515686035,-3.407029628753662,,,,,,
1764808627.16516,,,,,,,0.6087803840637207,-0.1911795735359192,0.08596432209014893,0.6853080987930298,-3.1334683895111084,3.204051971435547
1764808627.167398,-1.5501520514488218,3.7097459143072364,-0.688857731821388,-2.533817768096924,0.20334115624427795,-3.547062635421753,,,,,,
1764808627.17519,,,,,,,0.5518231987953186,-0.19375154376029968,0.10964411497116089,0.604010820388794,-3.1021652221679688,3.352100372314453
1764808627.177451,-1.453171686643362,3.417605965495109,-0.46723874156475065,-2.592881679534912,0.11184855550527573,-3.685183048248291,,,,,,
1764808627.18522,,,,,,,0.5577172040939331,-0.19247746467590332,0.12121860682964325,0.6478112936019897,-3.0663130283355713,3.5499165058135986
1764808627.187503,-1.4271487721145153,3.41158071385622,-0.11337269667983055,-2.68271541595459,0.07347507029771805,-3.824094295501709,,,,,,
1764808627.19525,,,,,,,0.6203584671020508,-0.1676453948020935,0.1143905520439148,0.7026086449623108,-3.1013424396514893,3.6837637424468994
1764808627.197555,-1.555849386307597,3.6278438761681318,0.06141334032919257,-2.773737907409668,0.10060039907693863,-3.969332695007324,,,,,,
1764808627.205281,,,,,,,0.6952880024909973,-0.10376846790313721,0.13936787843704224,0.7255216836929321,-3.15108585357666,3.80985689163208
1764808627.207608,-1.7701959013432262,4.149289424216747,0.040647652208805084,-2.8410422801971436,0.12713080644607544,-4.106751918792725,,,,,,
1764808627.215311,,,,,,,0.7552196383476257,-0.08677619695663452,0.16999024152755737,0.6820542216300964,-3.3239896297454834,3.978208541870117
1764808627.21766,-1.8814444454759358,4.509400500971078,-0.6666922233730554,-2.824310064315796,0.13535967469215393,-4.254709720611572,,,,,,
1764808627.225342,,,,,,,0.7356025576591492,-0.10979342460632324,0.25902193784713745,0.45613881945610046,-3.4986236095428467,4.0665435791015625
1764808627.227712,-1.7000059283077715,4.408416161221266,-1.7760627475500106,-2.7453596591949463,0.14464958012104034,-4.416956424713135,,,,,,
1764808627.235371,,,,,,,0.6207520365715027,-0.09567016363143921,0.36488258838653564,0.18307235836982727,-3.39380145072937,4.15427303314209
1764808627.237765,-1.1143903981655836,4.1412732910215855,-2.3226567653805015,-2.647646427154541,0.1505405604839325,-4.526471138000488,,,,,,
1764808627.245401,,,,,,,0.5249256491661072,-0.06621694564819336,0.40822160243988037,0.034224022179841995,-3.211446762084961,4.281266212463379
1764808627.247818,-0.26046178500056266,4.039939407181739,-2.05428581469059,-2.6109137535095215,0.20273345708847046,-4.5285325050354,,,,,,
1764808627.255431,,,,,,,0.5320654511451721,-0.025715947151184082,0.3941384553909302,0.03821556642651558,-3.076080322265625,4.371761322021484
1764808627.257869,0.32684067531526084,4.198082388958334,-1.31988316013813,-2.639810085296631,0.3190012276172638,-4.467594146728516,,,,,,
1764808627.265461,,,,,,,0.6155134439468384,0.044166624546051025,0.3314950466156006,0.20924989879131317,-2.9755759239196777,4.44842529296875
1764808627.267922,0.21537118190824983,4.4538998552843925,-0.4840179538648575,-2.6877200603485107,0.3899475634098053,-4.447841167449951,,,,,,
1764808627.275491,,,,,,,0.7216437458992004,0.11533892154693604,0.24353063106536865,0.4615844190120697,-2.950094223022461,4.533811092376709
1764808627.277974,-0.4373778563082218,4.804696283465623,0.13970664991922677,-2.7366955280303955,0.3755268156528473,-4.525567531585693,,,,,,
1764808627.285521,,,,,,,0.801792562007904,0.17596781253814697,0.18219709396362305,0.6197018623352051,-3.0311920642852783,4.524259090423584
1764808627.288026,-1.1450655224144457,5.037420166712999,0.11139474767036735,-2.7873337268829346,0.2833600640296936,-4.6797871589660645,,,,,,
1764808627.295551,,,,,,,0.8249750137329102,0.22560137510299683,0.2050156593322754,0.5572493672370911,-3.2113804817199707,4.430008888244629
1764808627.298079,-1.2667553810626269,4.991224232727289,-0.6541939763277769,-2.784977436065674,0.15548552572727203,-4.8635711669921875,,,,,,
1764808627.305581,,,,,,,0.7710270881652832,0.23667925596237183,0.3301624059677124,0.26630616188049316,-3.2733821868896484,4.404585361480713
1764808627.308132,-0.5375403582811356,4.824642508429289,-1.769771538451314,-2.7142350673675537,0.08771712332963943,-4.997200012207031,,,,,,
1764808627.315612,,,,,,,0.6671935319900513,0.1960163712501526,0.45091938972473145,-0.07153788208961487,-3.133603096008301,4.487828731536865
1764808627.318184,0.9674316582262515,4.970603469502926,-2.393082154607028,-2.640321969985962,0.07237225770950317,-4.994347095489502,,,,,,
1764808627.325642,,,,,,,0.5902925729751587,0.12741398811340332,0.5317360162734985,-0.31715723872184753,-2.9456207752227783,4.6159138679504395
1764808627.328236,2.455107087495923,5.327044917833804,-2.2880782039523124,-2.6146020889282227,0.042951129376888275,-4.867895603179932,,,,,,
1764808627.335672,,,,,,,0.5927050113677979,0.09660828113555908,0.511117696762085,-0.3587360382080078,-2.8264095783233643,4.708755970001221
1764808627.338288,2.970132247108221,5.4870034245997665,-1.8657681529164314,-2.622807025909424,-0.03270014002919197,-4.728247165679932,,,,,,
1764808627.345702,,,,,,,0.6463603973388672,0.14320439100265503,0.41280877590179443,-0.14557157456874847,-2.75392484664917,4.76759147644043
1764808627.348341,2.1547803250968456,5.24850095795095,-1.2713982384324074,-2.659491777420044,-0.1770397424697876,-4.677878379821777,,,,,,
1764808627.355732,,,,,,,0.7088398933410645,0.24540138244628906,0.3173633813858032,0.2173902839422226,-2.713367223739624,4.797888278961182
1764808627.358393,0.7560667893499136,5.002620071488619,-0.724345955440402,-2.7176544666290283,-0.3107765018939972,-4.728536605834961,,,,,,
1764808627.365762,,,,,,,0.7564517855644226,0.3217777609825134,0.2764158248901367,0.6522070169448853,-2.658447265625,4.8400559425354
1764808627.368445,-0.3745879303961992,5.037900059184432,-0.4113822681777179,-2.793689012527466,-0.35677430033683777,-4.82558536529541,,,,,,
1764808627.375792,,,,,,,0.7930369973182678,0.31793272495269775,0.23064661026000977,0.9628234505653381,-2.6617772579193115,4.8503031730651855
1764808627.378498,-1.0162281300991773,5.137698404020071,-0.6081592242531478,-2.8606410026550293,-0.3156138062477112,-4.942560195922852,,,,,,
1764808627.385822,,,,,,,0.8108001947402954,0.2961887717247009,0.2949099540710449,0.7443065643310547,-2.693199872970581,4.7289605140686035
1764808627.38855,-1.1013520528942347,5.412111557483673,-1.285718440207839,-2.8840227127075195,-0.25557181239128113,-5.066797733306885,,,,,,
1764808627.395852,,,,,,,0.8156119585037231,0.2825202941894531,0.46710288524627686,0.16124294698238373,-2.6442947387695312,4.716596603393555
1764808627.398602,-0.3758241941928863,6.179346806579828,-2.243507240819931,-2.817227602005005,-0.18756213784217834,-5.133586883544922,,,,,,
1764808627.405882,,,,,,,0.8255249261856079,0.20450955629348755,0.5844900608062744,-0.43681833148002625,-2.603806495666504,4.8381147384643555
1764808627.408655,1.1533709939450025,7.106662727516889,-3.089222152391076,-2.691009998321533,-0.1107184886932373,-5.069350242614746,,,,,,
1764808627.415912,,,,,,,0.8226423263549805,0.1593339443206787,0.6183686256408691,-0.826749861240387,-2.6013550758361816,4.88104772567749
1764808627.418707,2.8005910884827374,7.533122883969545,-3.112922761452198,-2.5889477729797363,-0.13228291273117065,-4.878013610839844,,,,,,
1764808627.425943,,,,,,,0.7963417768478394,0.23131734132766724,0.5828726291656494,-0.8369505405426025,-2.5639328956604004,4.875875949859619
1764808627.428759,3.5218443386048075,7.020211355510353,-2.4943437038630245,-2.5497469902038574,-0.30084970593452454,-4.670027256011963,,,,,,
1764808627.435973,,,,,,,0.7603477835655212,0.35995733737945557,0.4961174726486206,-0.5352838635444641,-2.4988479614257812,4.904049873352051
1764808627.438812,2.931424038529396,5.9109214953541755,-1.7375011078350244,-2.5848278999328613,-0.5280807018280029,-4.5621113777160645,,,,,,
1764808627.446003,,,,,,,0.7364970445632935,0.45978784561157227,0.4073909521102905,-0.10870113968849182,-2.412374258041382,4.8789143562316895
1764808627.448864,1.8057815939873456,5.1103421950608485,-1.2013656479157506,-2.6710104942321777,-0.6993503570556641,-4.564311504364014,,,,,,
1764808627.456033,,,,,,,0.7283610701560974,0.4964483380317688,0.3498554229736328,0.3395096957683563,-2.264349937438965,4.857752799987793
1764808627.458916,0.9953501772433518,5.04924212193191,-0.9549544539690017,-2.7779672145843506,-0.7679344415664673,-4.597494125366211,,,,,,
1764808627.466063,,,,,,,0.7518794536590576,0.4658796787261963,0.31084755063056946,0.8102372288703918,-2.0850167274475098,4.912608623504639
1764808627.46897,0.6181587863504886,5.384702157032489,-0.7943704357158392,-2.8939218521118164,-0.7419793009757996,-4.580757141113281,,,,,,
1764808627.476093,,,,,,,0.7866082191467285,0.4067121148109436,0.30308759212493896,1.1157982349395752,-1.888923168182373,4.975912094116211
1764808627.479021,0.3863350668132305,5.822204516503215,-0.6575204904019832,-3.004817008972168,-0.6690678000450134,-4.5260186195373535,,,,,,
1764808627.486123,,,,,,,0.8184814453125,0.37368249893188477,0.3544759452342987,1.0551625490188599,-1.6875187158584595,4.977311611175537
1764808627.489074,0.10504325975179672,6.423270713755488,-0.8138059346783906,-3.058607339859009,-0.595363199710846,-4.484084129333496,,,,,,
1764808627.496153,,,,,,,0.8592901229858398,0.34751248359680176,0.42466413974761963,0.7548538446426392,-1.542818546295166,4.986062526702881
1764808627.499126,-0.16876023738086224,7.146957328504324,-1.1681003610432148,-3.038506507873535,-0.5581572651863098,-4.461012363433838,,,,,,
1764808627.506183,,,,,,,0.9137679934501648,0.28146249055862427,0.47111594676971436,0.34483885765075684,-1.4993098974227905,5.01459264755249
1764808627.509178,-0.1380009419798851,7.825331221842766,-1.5104454794824123,-2.9629967212677,-0.5621036887168884,-4.42348575592041,,,,,,
1764808627.516213,,,,,,,0.9505826830863953,0.21032756567001343,0.518052339553833,-0.12810289859771729,-1.5359268188476562,4.957929611206055
1764808627.519231,0.12577157500386238,8.21729231184423,-1.7989648997098207,-2.8458991050720215,-0.6243345737457275,-4.391755104064941,,,,,,
1764808627.526243,,,,,,,0.9594988226890564,0.18299734592437744,0.5822470188140869,-0.5916444659233093,-1.5694997310638428,4.8702826499938965
1764808627.529283,0.540861027136445,8.34081289305091,-1.8710995770722627,-2.714461088180542,-0.7394514083862305,-4.377284049987793,,,,,,
1764808627.536273,,,,,,,0.9481015205383301,0.20747822523117065,0.6341502666473389,-1.0179461240768433,-1.5749943256378174,4.800121784210205
1764808627.539335,0.9703811556816101,8.342923017072676,-1.866910308688879,-2.5763673782348633,-0.8955666422843933,-4.379826068878174,,,,,,
1764808627.546304,,,,,,,0.9285838603973389,0.26325511932373047,0.6511530876159668,-1.3802261352539062,-1.5510178804397583,4.736515998840332
1764808627.549388,1.3787024288535117,8.330083993765712,-1.8276865518033503,-2.4386141300201416,-1.0639466047286987,-4.378288269042969,,,,,,
1764808627.556334,,,,,,,0.9121496677398682,0.30164867639541626,0.6289438009262085,-1.6127147674560547,-1.5263737440109253,4.6699604988098145
1764808627.55944,1.6175024171441792,8.160769045111536,-1.76088271407485,-2.3274528980255127,-1.2273011207580566,-4.339703559875488,,,,,,
1764808627.566365,,,,,,,0.9014092683792114,0.3077261447906494,0.5972795486450195,-1.758100986480713,-1.5067037343978882,4.624488353729248
1764808627.569492,1.603716468375921,7.748859392058849,-1.660252594590187,-2.281991958618164,-1.3537898063659668,-4.276421070098877,,,,,,
1764808627.576394,,,,,,,0.8953372240066528,0.3070964813232422,0.5715769529342651,-1.8426315784454346,-1.4537158012390137,4.559360027313232
1764808627.579545,1.289798987519741,7.354404731675982,-1.6877508423686027,-2.2859747409820557,-1.3976304531097412,-4.235655307769775,,,,,,
1764808627.586424,,,,,,,0.8972021341323853,0.32754063606262207,0.5599342584609985,-1.9265778064727783,-1.3875058889389038,4.485385417938232
1764808627.589597,0.841207078757882,7.370663208037614,-1.6705764202058315,-2.31373929977417,-1.385740876197815,-4.225481986999512,,,,,,
1764808627.596454,,,,,,,0.916130006313324,0.3673478960990906,0.5645073652267456,-1.97739839553833,-1.3900806903839111,4.434739589691162
1764808627.599649,0.4420052238479256,7.581717111268639,-1.768210280483961,-2.312376022338867,-1.3370544910430908,-4.225408554077148,,,,,,
1764808627.606484,,,,,,,0.9264475107192993,0.4021875262260437,0.5587122440338135,-1.9421285390853882,-1.4317487478256226,4.404495716094971
1764808627.609702,0.28253566964268684,7.610277435320615,-2.054481045001745,-2.2771096229553223,-1.2509737014770508,-4.19954776763916,,,,,,
1764808627.616514,,,,,,,0.9062219858169556,0.43279969692230225,0.5435048341751099,-1.8337963819503784,-1.4542471170425415,4.371941566467285
1764808627.619754,0.2995557780265808,7.379373753237724,-2.2808137659072876,-2.247469902038574,-1.1539276838302612,-4.145081520080566,,,,,,
1764808627.626544,,,,,,,0.8535579442977905,0.4482372999191284,0.5486354827880859,-1.6915159225463867,-1.4058759212493896,4.333155155181885
1764808627.629806,0.3107867816150188,7.165625788617134,-2.4076681677117944,-2.245504379272461,-1.0568840503692627,-4.083443641662598,,,,,,
1764808627.636574,,,,,,,0.8041171431541443,0.43972402811050415,0.5830795764923096,-1.6169602870941162,-1.3411706686019897,4.2892351150512695
1764808627.639859,0.3204726015880704,7.140485502141714,-2.5346879892110823,-2.237588405609131,-0.9683769941329956,-4.054332256317139,,,,,,
1764808627.646604,,,,,,,0.7839946150779724,0.4169471263885498,0.5973327159881592,-1.5989255905151367,-1.292208194732666,4.243563652038574
1764808627.649911,0.37576223487257954,7.184479542168974,-2.7004420305132864,-2.2000131607055664,-0.9259472489356995,-4.057929992675781,,,,,,
1764808627.656635,,,,,,,0.7792739868164062,0.3850938379764557,0.6018174886703491,-1.6396602392196655,-1.2509979009628296,4.19864559173584
1764808627.659963,0.6209563081145286,7.2295736523926255,-2.716696415221691,-2.1399855613708496,-0.9350369572639465,-4.060136795043945,,,,,,
1764808627.666665,,,,,,,0.781541109085083,0.3749939799308777,0.5988595485687256,-1.7020727396011353,-1.2269517183303833,4.1719889640808105
1764808627.670016,0.9756862763524055,7.2573343504995105,-2.726414968420565,-2.0785579681396484,-0.9855608344078064,-4.030424118041992,,,,,,
1764808627.676695,,,,,,,0.774568498134613,0.36275652050971985,0.6163347959518433,-1.7964228391647339,-1.2031166553497314,4.132832050323486
1764808627.680068,1.164641306630522,7.182761632335185,-2.740628202690184,-2.0292513370513916,-1.0498011112213135,-4.006563186645508,,,,,,
1764808627.686725,,,,,,,0.7606404423713684,0.3383459448814392,0.6306594610214233,-1.8955568075180054,-1.153167963027954,4.103416919708252
1764808627.69012,1.2170766464624554,7.107782086935639,-2.7632322486862537,-1.966252326965332,-1.1087027788162231,-4.025877952575684,,,,,,
1764808627.696755,,,,,,,0.7500467896461487,0.3117782771587372,0.6349745988845825,-1.9691965579986572,-1.1143110990524292,4.066760063171387
1764808627.700173,1.3251312899246812,6.920417686849832,-2.7969726057246325,-1.8959485292434692,-1.1528239250183105,-4.070427417755127,,,,,,
1764808627.706785,,,,,,,0.7356788516044617,0.33297789096832275,0.6264030933380127,-2.0346839427948,-1.0675811767578125,4.065788745880127
1764808627.710225,1.5219066385649145,6.747448891863226,-2.742541635096073,-1.8394488096237183,-1.1835789680480957,-4.1065754890441895,,,,,,
1764808627.716815,,,,,,,0.7261457443237305,0.39061346650123596,0.6102514266967773,-1.9998066425323486,-1.0159838199615479,4.100656032562256
1764808627.720277,1.7015218858286738,6.6346180469751355,-2.810399365791678,-1.8031911849975586,-1.1749188899993896,-4.113381862640381,,,,,,
1764808627.726846,,,,,,,0.7166882753372192,0.44593870639801025,0.5933573246002197,-1.8934417963027954,-0.9446874260902405,4.123315334320068
1764808627.73033,1.7880504147246479,6.567967938503623,-3.0308497506603596,-1.7921724319458008,-1.113425374031067,-4.099060535430908,,,,,,
1764808627.736875,,,,,,,0.7146568894386292,0.4940575957298279,0.5718634128570557,-1.7585967779159546,-0.8646599650382996,4.15907096862793
1764808627.740382,1.8880745311401783,6.65566551117897,-3.1609827357441187,-1.781707525253296,-1.0269231796264648,-4.078113079071045,,,,,,
1764808627.746905,,,,,,,0.7234472632408142,0.5192642211914062,0.5665194392204285,-1.6022518873214722,-0.8342160582542419,4.199171543121338
1764808627.750435,1.9774851913437246,6.727047908869386,-3.230016816742718,-1.7340621948242188,-0.9175800681114197,-4.055022239685059,,,,,,
1764808627.756935,,,,,,,0.720483124256134,0.5227439403533936,0.5611137747764587,-1.4922651052474976,-0.8050611019134521,4.202635765075684
1764808627.760487,2.0087262789122757,6.666369276022911,-3.2765497275978324,-1.6565264463424683,-0.768865704536438,-4.026699066162109,,,,,,
1764808627.766966,,,,,,,0.6952006220817566,0.5254314541816711,0.5480930805206299,-1.4075899124145508,-0.7275213003158569,4.171648979187012
1764808627.770539,2.0795833375543356,6.467276444220542,-3.1193609778061506,-1.5821962356567383,-0.623372495174408,-3.9774701595306396,,,,,,
1764808627.776996,,,,,,,0.6635609269142151,0.5385420918464661,0.5366578102111816,-1.3724063634872437,-0.6341612339019775,4.151241302490234
1764808627.780592,2.121954306424409,6.309350320065021,-2.8361767811268566,-1.5050199031829834,-0.4832491874694824,-3.914877414703369,,,,,,
1764808627.787026,,,,,,,0.6430026292800903,0.5565083026885986,0.5119025111198425,-1.292834758758545,-0.5650495290756226,4.10722541809082
1764808627.790644,2.070990573514998,6.120850193947553,-2.5887615247040987,-1.4161593914031982,-0.36710599064826965,-3.857396364212036,,,,,,
1764808627.797056,,,,,,,0.6182972192764282,0.5728459358215332,0.46474456787109375,-1.1991208791732788,-0.504187822341919,4.012630462646484
1764808627.800696,2.1143656048610806,5.684491743814945,-2.3820167168438435,-1.3331193923950195,-0.291803777217865,-3.8166310787200928,,,,,,
1764808627.807087,,,,,,,0.5820540189743042,0.6338815689086914,0.4027707576751709,-1.0988608598709106,-0.419274240732193,3.9495317935943604
1764808627.810749,2.401482172553241,5.262763876581191,-2.153716495257616,-1.3004087209701538,-0.2779843807220459,-3.7569947242736816,,,,,,
1764808627.817116,,,,,,,0.5509524941444397,0.6848213076591492,0.34889882802963257,-0.9033133387565613,-0.3244955241680145,3.8591463565826416
1764808627.820801,2.819579574330151,5.079924844965339,-1.9813903820887206,-1.3120498657226562,-0.33030056953430176,-3.6722450256347656,,,,,,
1764808627.827146,,,,,,,0.5258811116218567,0.677808940410614,0.3187856674194336,-0.7843696475028992,-0.2399260550737381,3.7306861877441406
1764808627.830853,3.221615191361308,5.1373184647917745,-2.1087159085363147,-1.2989453077316284,-0.4312414526939392,-3.578678607940674,,,,,,
1764808627.837176,,,,,,,0.5212745666503906,0.6202755570411682,0.32000958919525146,-0.7660149931907654,-0.1939966380596161,3.5739450454711914
1764808627.840906,3.5368761957809327,5.265178536507487,-2.2119880669623613,-1.2748911380767822,-0.5855194330215454,-3.496034860610962,,,,,,
1764808627.847206,,,,,,,0.529328465461731,0.553494930267334,0.3352471590042114,-1.0168216228485107,-0.17519712448120117,3.424891233444214
1764808627.850958,3.7589445372402666,5.547932232815027,-2.1338044648244976,-1.2529144287109375,-0.8428752422332764,-3.424539804458618,,,,,,
1764808627.857236,,,,,,,0.5597625374794006,0.5028183460235596,0.3739320635795593,-1.387047290802002,-0.2592898905277252,3.3089613914489746
1764808627.86101,3.862593127763271,5.693056158542633,-2.2404235955908893,-1.1905195713043213,-1.166342854499817,-3.355250358581543,,,,,,
1764808627.867266,,,,,,,0.5745259523391724,0.4435167610645294,0.417707622051239,-1.839000940322876,-0.4558085501194,3.172325611114502
1764808627.871063,3.953208925972879,5.186663802719116,-2.484991938149929,-1.0846490859985352,-1.4536693096160889,-3.315359354019165,,,,,,
1764808627.877297,,,,,,,0.523382842540741,0.426523357629776,0.4207162857055664,-2.2735965251922607,-0.6354789733886719,3.0433027744293213
1764808627.881115,4.143712793128192,4.216994010177254,-2.445487610757351,-0.9685536623001099,-1.6556154489517212,-3.267036199569702,,,,,,
1764808627.887327,,,,,,,0.4150274991989136,0.4751221537590027,0.3693888187408447,-2.569502592086792,-0.7128531336784363,2.9364991188049316
1764808627.891167,4.437920488125085,2.9603906052947044,-2.085854672908783,-0.9220074415206909,-1.7862361669540405,-3.1923348903656006,,,,,,
1764808627.897357,,,,,,,0.2897247076034546,0.5835357904434204,0.2943459153175354,-2.6393039226531982,-0.7176747918128967,2.8629648685455322
1764808627.90122,4.637569492505491,1.8435235878825187,-1.8790502438157797,-0.9318379759788513,-1.779106616973877,-3.0922365188598633,,,,,,
1764808627.907387,,,,,,,0.19210410118103027,0.7055388689041138,0.19477039575576782,-2.397132396697998,-0.7260475158691406,2.7589402198791504
1764808627.911272,4.791681903591752,0.8683721490591764,-2.10471485620141,-0.9521803855895996,-1.6088078022003174,-2.9771358966827393,,,,,,
1764808627.917417,,,,,,,0.10683310031890869,0.8543370366096497,0.09459975361824036,-2.018911838531494,-0.6943332552909851,2.6654224395751953
1764808627.921324,4.959190095084906,0.2534229724049568,-2.3014970729738473,-0.988014280796051,-1.2786866426467896,-2.817307949066162,,,,,,
1764808627.927447,,,,,,,0.03209078311920166,0.9964290857315063,0.022766143083572388,-1.4344302415847778,-0.6054752469062805,2.6421449184417725
1764808627.931377,5.113413857591152,0.0209399121761322,-2.5050363627910612,-1.035049319267273,-0.842097282409668,-2.630936861038208,,,,,,
1764808627.937477,,,,,,,-0.035737812519073486,1.0656852722167969,-0.03536391258239746,-0.8398147225379944,-0.4979317784309387,2.5947513580322266
1764808627.94143,5.290964135149121,-0.15839900236427784,-2.738454658043384,-1.079881191253662,-0.38810715079307556,-2.463287115097046,,,,,,
1764808627.947507,,,,,,,-0.08866441249847412,1.1091971397399902,-0.043764710426330566,-0.3909817337989807,-0.4211227297782898,2.5077342987060547
1764808627.951481,5.599669434314966,-0.28367665637135503,-2.944723665085435,-1.082688570022583,0.012848803773522377,-2.3327653408050537,,,,,,
1764808627.957538,,,,,,,-0.1265738606452942,1.1140528917312622,-0.037644803524017334,-0.09759590774774551,-0.3627188205718994,2.412707805633545
1764808627.961535,6.110806354317068,-0.24049451724886892,-3.0656103906571865,-1.0667285919189453,0.296812504529953,-2.2176480293273926,,,,,,
1764808627.967567,,,,,,,-0.15090936422348022,1.0769767761230469,-0.03945976495742798,0.08769219368696213,-0.32508063316345215,2.3177130222320557
1764808627.971586,6.821943868616223,-0.13614800758957862,-3.083037910798192,-1.0502591133117676,0.4310893714427948,-2.1171391010284424,,,,,,
1764808627.977597,,,,,,,-0.16051357984542847,1.0266441106796265,-0.02750055491924286,0.14981882274150848,-0.3159121572971344,2.165076732635498
1764808627.981638,7.717242603045701,-0.05782324341535568,-3.0945483158499,-1.005982518196106,0.43748390674591064,-2.0081357955932617,,,,,,
1764808627.987628,,,,,,,-0.15403121709823608,1.029474139213562,-0.021687179803848267,0.06566905975341797,-0.3593030571937561,2.016613483428955
1764808627.991691,8.681084712347388,0.0840431418210268,-3.0329350325018165,-0.9228788614273071,0.3454551696777344,-1.831555724143982,,,,,,
1764808627.997658,,,,,,,-0.1421288251876831,1.0389142036437988,-0.02492561936378479,0.05455625802278519,-0.4358830451965332,1.8671551942825317
1764808628.001743,9.38862683250308,-0.003348725906014442,-2.918240147307515,-0.8446064591407776,0.21096499264240265,-1.5950154066085815,,,,,,
1764808628.007688,,,,,,,-0.1524871587753296,1.0440728664398193,-0.03183102607727051,0.00848064012825489,-0.4690718948841095,1.6819730997085571
1764808628.011795,9.645983637225628,-0.15423106902986763,-2.8540590592980384,-0.7759573459625244,0.07099004834890366,-1.3178091049194336,,,,,,
1764808628.017718,,,,,,,-0.17079907655715942,1.0783770084381104,-0.04272642731666565,-0.0879250019788742,-0.47074729204177856,1.4762382507324219
1764808628.021848,9.478733219885825,-0.15121435155719518,-2.7711797005593777,-0.706657886505127,-0.07082688063383102,-1.0299757719039917,,,,,,
1764808628.027748,,,,,,,-0.18691802024841309,1.0917177200317383,-0.051646918058395386,-0.09454801678657532,-0.5159424543380737,1.2590478658676147
1764808628.0319,8.890441748532652,-0.3288020385161042,-2.874388146099448,-0.6392279863357544,-0.1487794667482376,-0.7883786559104919,,,,,,
1764808628.037778,,,,,,,-0.21303439140319824,1.0629479885101318,-0.03967785835266113,-0.07387622445821762,-0.5344982743263245,1.015318751335144
1764808628.041952,8.170159389269351,-0.6235787655726075,-3.0176462779551745,-0.5845357775688171,-0.15849125385284424,-0.6220961213111877,,,,,,
1764808628.047808,,,,,,,-0.24381059408187866,1.068101167678833,-0.0059874653816223145,-0.12158196419477463,-0.515559196472168,0.804313600063324
1764808628.052005,7.57487119089663,-0.7571805958107113,-3.1497645916372536,-0.5285204648971558,-0.09960423409938812,-0.49935951828956604,,,,,,
1764808628.057838,,,,,,,-0.2659045457839966,1.0944743156433105,0.013348579406738281,-0.08735688030719757,-0.47281843423843384,0.6344971656799316
