timestamp,phone_accel_x,phone_accel_y,phone_accel_z,phone_gyro_x,phone_gyro_y,phone_gyro_z,watch_accel_x,watch_accel_y,watch_accel_z,watch_gyro_x,watch_gyro_y,watch_gyro_z
1764808570.149381,-0.26009178264439103,0.0495744705080986,0.3509451890021562,0.441339373588562,0.17468991875648499,0.06356262415647507,,,,,,
1764808570.15419,,,,,,,0.04906284809112549,-0.10708379745483398,-0.01408165693283081,0.27584463357925415,0.38522544503211975,-0.17035746574401855
1764808570.159433,-0.36922143492698667,-0.038572599500417706,0.3340622971318662,0.38972193002700806,0.1920253038406372,0.05064794421195984,,,,,,
1764808570.16422,,,,,,,0.04803729057312012,-0.09280872344970703,-0.02540016919374466,0.21322840452194214,0.35306164622306824,-0.1557876467704773
1764808570.169485,-0.4184200578600168,-0.07433131062388419,0.29231998155415057,0.34057116508483887,0.20621702075004578,0.026608653366565704,,,,,,
1764808570.17425,,,,,,,0.04918360710144043,-0.07153373956680298,-0.03384942561388016,0.2053891271352768,0.31866931915283203,-0.13652153313159943
1764808570.179537,-0.3338935164362192,-0.051772272813320155,0.3068183163754642,0.29611966013908386,0.21688100695610046,0.003910401836037636,,,,,,
1764808570.18428,,,,,,,0.049127161502838135,-0.05120342969894409,-0.03962665796279907,0.2122058868408203,0.27651095390319824,-0.12568558752536774
1764808570.18959,-0.16682196279466152,0.004551671954989433,0.3507230706840753,0.2601483166217804,0.21632200479507446,-0.002943509491160512,,,,,,
1764808570.19431,,,,,,,0.046478986740112305,-0.04040008783340454,-0.040880851447582245,0.2106679230928421,0.23225560784339905,-0.11907803267240524
1764808570.199642,-0.02003156515955925,0.05236380896568298,0.35691849125809966,0.23840808868408203,0.20546557009220123,0.003403626848012209,,,,,,
1764808570.204341,,,,,,,0.039710938930511475,-0.04354381561279297,-0.037185244262218475,0.20541797578334808,0.20679977536201477,-0.10982900857925415
1764808570.209694,0.0808756177008152,0.051044543060660356,0.38329270344264804,0.22837276756763458,0.18918779492378235,0.017745282500982285,,,,,,
1764808570.214371,,,,,,,0.03337252140045166,-0.04407697916030884,-0.03307986259460449,0.21284553408622742,0.19989660382270813,-0.0973409116268158
1764808570.219746,0.13236848905086518,0.09610592005848884,0.4654921901583671,0.22227342426776886,0.16359132528305054,0.03267044574022293,,,,,,
1764808570.224401,,,,,,,0.028963446617126465,-0.035426199436187744,-0.040694236755371094,0.22242186963558197,0.18840345740318298,-0.0914972722530365
1764808570.229798,0.15103285751044748,0.09178338068425655,0.5677988645531237,0.21750104427337646,0.12394271790981293,0.04693460091948509,,,,,,
1764808570.234431,,,,,,,0.03099113702774048,-0.026620864868164062,-0.04522395133972168,0.22583845257759094,0.1818462312221527,-0.10378216952085495
1764808570.239851,0.1050876834154129,0.09898936654031276,0.6197445942372083,0.20654837787151337,0.08080895990133286,0.062445346266031265,,,,,,
1764808570.244461,,,,,,,0.03688490390777588,-0.025828540325164795,-0.04339665174484253,0.22795702517032623,0.1748860478401184,-0.11001415550708771
1764808570.249903,0.004146013763546943,0.14067396058142184,0.6227279939621686,0.19817647337913513,0.048715200275182724,0.07498163729906082,,,,,,
1764808570.254491,,,,,,,0.04372459650039673,-0.024317681789398193,-0.04278618097305298,0.22990752756595612,0.15667535364627838,-0.11463367938995361
1764808570.259955,-0.09927753583192825,0.18143267194926738,0.5739717079691589,0.18831796944141388,0.03792285546660423,0.08214106410741806,,,,,,
1764808570.264521,,,,,,,0.046752750873565674,-0.021784603595733643,-0.04478985071182251,0.22638320922851562,0.1460309624671936,-0.12274773418903351
1764808570.270007,-0.17531155872046947,0.20308044013381002,0.5479372491329908,0.18025816977024078,0.04180121421813965,0.08613873273134232,,,,,,
1764808570.274551,,,,,,,0.04506182670593262,-0.023155629634857178,-0.04035354405641556,0.21758385002613068,0.13780446350574493,-0.12659680843353271
1764808570.280059,-0.19688333905935287,0.2516495329916477,0.5258608802728355,0.171045184135437,0.0597352497279644,0.08626318722963333,,,,,,
1764808570.284581,,,,,,,0.046473920345306396,-0.03164392709732056,-0.03788227587938309,0.20163360238075256,0.13041765987873077,-0.12385373562574387
1764808570.290112,-0.1897977647125721,0.27452070549130436,0.4682441192150116,0.1623355895280838,0.09024921804666519,0.08370761573314667,,,,,,
1764808570.294611,,,,,,,0.05175501108169556,-0.03866845369338989,-0.03480839729309082,0.1817975789308548,0.11714684963226318,-0.12189072370529175
1764808570.300164,-0.16493337256908416,0.27551147009432314,0.4947328976899385,0.15307465195655823,0.12077014893293381,0.07849721610546112,,,,,,
1764808570.304641,,,,,,,0.05494600534439087,-0.0393027663230896,-0.031888484954833984,0.1487581431865692,0.0999489575624466,-0.12773144245147705
1764808570.310216,-0.0893798266738653,0.217312379103899,0.5100974939517676,0.14600369334220886,0.14181390404701233,0.06956923007965088,,,,,,
1764808570.314671,,,,,,,0.0524669885635376,-0.03935372829437256,-0.03342824429273605,0.1386469155550003,0.09029605984687805,-0.12258993834257126
1764808570.320268,-0.02202186219394207,0.17886077563464642,0.5273455658726394,0.14209219813346863,0.14643734693527222,0.0655621811747551,,,,,,
1764808570.324702,,,,,,,0.04403454065322876,-0.0344274640083313,-0.035729289054870605,0.14143304526805878,0.0916510745882988,-0.1270878165960312
1764808570.33032,0.05298281764686107,0.15696867730021477,0.5601103558771312,0.13633178174495697,0.1369037628173828,0.07650963217020035,,,,,,
1764808570.334732,,,,,,,0.03767949342727661,-0.01735752820968628,-0.041625380516052246,0.16364061832427979,0.09431903064250946,-0.1277613341808319
1764808570.340373,0.06866203281581401,0.13968611858785152,0.5457458765685558,0.132876917719841,0.12594017386436462,0.09884729981422424,,,,,,
1764808570.344762,,,,,,,0.035801470279693604,-0.005178868770599365,-0.04751455783843994,0.22032763063907623,0.08951468765735626,-0.11389319598674774
1764808570.350425,0.014164718952775001,0.09606149639487266,0.49672611733376976,0.1285511553287506,0.1208503395318985,0.12209643423557281,,,,,,
1764808570.354792,,,,,,,0.03788793087005615,-0.007581770420074463,-0.05422031879425049,0.2632482051849365,0.06385114043951035,-0.11687459796667099
1764808570.360477,-0.07063011801838874,0.004171732726693153,0.4628846380084753,0.11070439964532852,0.12448101490736008,0.13920654356479645,,,,,,
1764808570.364822,,,,,,,0.033170461654663086,-0.014688074588775635,-0.052418239414691925,0.2746243178844452,0.04202280938625336,-0.13503383100032806
1764808570.370529,-0.15375088429749012,-0.120742348664999,0.4117489095330238,0.08114197850227356,0.13142600655555725,0.13832157850265503,,,,,,
1764808570.374852,,,,,,,0.02780139446258545,-0.019947469234466553,-0.043404944241046906,0.2758994400501251,0.025893637910485268,-0.13010911643505096
1764808570.380581,-0.18981997654438018,-0.15201836141645908,0.28784605101048943,0.05920610949397087,0.13813084363937378,0.13007719814777374,,,,,,
1764808570.384882,,,,,,,0.02467787265777588,-0.02819514274597168,-0.03264791518449783,0.26492226123809814,-0.0009254585020244122,-0.11266566812992096
1764808570.390634,-0.15850304726064204,-0.13247253394722938,0.2331582560766488,0.045458339154720306,0.15014730393886566,0.12162299454212189,,,,,,
1764808570.394912,,,,,,,0.018753409385681152,-0.04083096981048584,-0.01745373010635376,0.23410603404045105,-0.02211862802505493,-0.10912925750017166
1764808570.400686,-0.11337152763605117,-0.12566343845427036,0.2200626276601106,0.038518037647008896,0.15612027049064636,0.11769189685583115,,,,,,
1764808570.404942,,,,,,,0.007382214069366455,-0.056985557079315186,-0.00859551876783371,0.18609333038330078,-0.028224192559719086,-0.10055354237556458
1764808570.410738,-0.1097802251458168,-0.17283844660520553,0.23434125531613825,0.03143269568681717,0.1560576856136322,0.11127793788909912,,,,,,
1764808570.414972,,,,,,,-0.002736032009124756,-0.0651477575302124,-0.0076059624552726746,0.13403040170669556,-0.030874302610754967,-0.09289669245481491
1764808570.42079,-0.0876858822375536,-0.22641981466710567,0.26235680496692654,0.017415307462215424,0.13481037318706512,0.09892266243696213,,,,,,
1764808570.425002,,,,,,,-0.004776895046234131,-0.060790181159973145,-0.010184936225414276,0.09019466489553452,-0.029830878600478172,-0.07786241918802261
1764808570.430842,-0.03904372414350509,-0.29085166256725786,0.2638800690114498,-0.0028204568661749363,0.10132352262735367,0.07917212694883347,,,,,,
1764808570.435032,,,,,,,-0.0015233755111694336,-0.051894545555114746,-0.010512575507164001,0.06445974111557007,-0.03641340881586075,-0.06508909910917282
1764808570.440895,0.018076339438557625,-0.24656711516082286,0.24330446010306475,-0.02502877078950405,0.061195824295282364,0.06059134006500244,,,,,,
1764808570.445063,,,,,,,0.0038061141967773438,-0.04533064365386963,-0.010445348918437958,0.04367857426404953,-0.05454101413488388,-0.048153989017009735
1764808570.450947,0.060302200749516484,-0.17473346657156943,0.17604352625682948,-0.04783714562654495,0.031361497938632965,0.0535866916179657,,,,,,
1764808570.455093,,,,,,,0.005302488803863525,-0.04513514041900635,-0.011013977229595184,0.03338359296321869,-0.06975086778402328,-0.021916793659329414
1764808570.460999,0.011049801802635192,-0.14147066391706467,0.06768836547806859,-0.061016857624053955,0.012423420324921608,0.045733943581581116,,,,,,
1764808570.465123,,,,,,,0.0027889013290405273,-0.049607813358306885,-0.0039732009172439575,0.029835032299160957,-0.0734124407172203,0.007193952798843384
1764808570.471051,-0.047431028738617896,-0.13057868302464484,0.028881372699886557,-0.0775899812579155,-0.0012228826526552439,0.028922470286488533,,,,,,
1764808570.475153,,,,,,,0.0009023547172546387,-0.048142850399017334,0.005552470684051514,0.022609876468777657,-0.08404351770877838,0.02468559518456459
1764808570.481103,-0.07409867091178894,-0.08476444183290004,0.04116670764684677,-0.09029895812273026,-0.015989437699317932,0.008287010714411736,,,,,,
1764808570.485183,,,,,,,0.0017175674438476562,-0.03745079040527344,0.01161176711320877,0.019705861806869507,-0.09402637928724289,0.044933341443538666
1764808570.491156,-0.08162965093851089,-0.0575607930868864,0.04131349570639431,-0.09579119831323624,-0.03647846728563309,-0.004374988377094269,,,,,,
1764808570.495213,,,,,,,0.003216385841369629,-0.025880157947540283,0.011463463306427002,0.01726747304201126,-0.1030116155743599,0.06834997981786728
1764808570.501208,-0.10338087949752807,-0.05675824453234672,0.043428222838044164,-0.09833803027868271,-0.05384925752878189,-0.009011263959109783,,,,,,
1764808570.505243,,,,,,,0.0035135746002197266,-0.02768152952194214,0.010447509586811066,0.008259549736976624,-0.11326718330383301,0.07727949321269989
1764808570.51126,-0.13970306972265242,-0.09514262798428536,0.04693484271951019,-0.10649076849222183,-0.06344196200370789,-0.011298919096589088,,,,,,
1764808570.515273,,,,,,,-0.0028900504112243652,-0.029248178005218506,0.012852557003498077,-0.0074770692735910416,-0.11050521582365036,0.07190976291894913
1764808570.521312,-0.16973872702419757,-0.1490893222272396,0.033553894555568696,-0.11808031052350998,-0.07242631167173386,-0.011650935746729374,,,,,,
1764808570.525303,,,,,,,-0.009872853755950928,-0.021605253219604492,0.019404299557209015,-0.015145476907491684,-0.10595867037773132,0.07054463028907776
1764808570.531364,-0.22569325395822523,-0.12099720020890235,-0.0072930065523833035,-0.12160393595695496,-0.07948421686887741,-0.012738038785755634,,,,,,
1764808570.535333,,,,,,,-0.011086702346801758,-0.013857126235961914,0.024565592408180237,-0.023025503382086754,-0.10416635870933533,0.06126964092254639
1764808570.541417,-0.2645505156189203,-0.06488894401788711,-0.03505143963694572,-0.11730719357728958,-0.08115310221910477,-0.016170799732208252,,,,,,
1764808570.545363,,,,,,,-0.011677384376525879,-0.011278212070465088,0.029356427490711212,-0.04613906890153885,-0.10528995096683502,0.05674952268600464
1764808570.551469,-0.27798165960013865,-0.024428338813781737,-0.0830582224369049,-0.11465655267238617,-0.07997491955757141,-0.01712847128510475,,,,,,
1764808570.555394,,,,,,,-0.01033937931060791,-0.018910348415374756,0.03219886124134064,-0.06717325001955032,-0.11089111119508743,0.05729201063513756
1764808570.561521,-0.27914135102927684,-0.0578834491699934,-0.11681962226331233,-0.11095518618822098,-0.07560119032859802,-0.01749129220843315,,,,,,
1764808570.565424,,,,,,,-0.01024693250656128,-0.02366882562637329,0.03165430575609207,-0.08730003982782364,-0.1112048327922821,0.05531521141529083
1764808570.571573,-0.23835282904505728,-0.08285597786307335,-0.1100455980837345,-0.1124284416437149,-0.07147914916276932,-0.021926255896687508,,,,,,
1764808570.575454,,,,,,,-0.012044131755828857,-0.02126598358154297,0.03510594367980957,-0.09816361218690872,-0.10729504376649857,0.04639788344502449
1764808570.581625,-0.18073066115975378,-0.0945569370508194,-0.08891396272778511,-0.11063065379858017,-0.07599466294050217,-0.024578988552093506,,,,,,
1764808570.585484,,,,,,,-0.014352500438690186,-0.012605428695678711,0.034612901508808136,-0.10473837703466415,-0.10718292742967606,0.043312475085258484
1764808570.591678,-0.1561164443850517,-0.08718027080297469,-0.09328085270039736,-0.10809106379747391,-0.09327032417058945,-0.02274486981332302,,,,,,
1764808570.595514,,,,,,,-0.01271432638168335,-0.009009003639221191,0.037345871329307556,-0.11230654269456863,-0.1101084053516388,0.042546018958091736
1764808570.60173,-0.14916180294156073,-0.060467620444297786,-0.13623042517602443,-0.10286124795675278,-0.10951249301433563,-0.020074043422937393,,,,,,
1764808570.605545,,,,,,,-0.01416468620300293,-0.011483192443847656,0.03355741500854492,-0.11623076349496841,-0.10659196972846985,0.03821505233645439
1764808570.611782,-0.1644312682658434,-0.05907762739062309,-0.1216956308018416,-0.09712586551904678,-0.1255740076303482,-0.018221283331513405,,,,,,
1764808570.615574,,,,,,,-0.01586151123046875,-0.018080830574035645,0.03379927575588226,-0.1287665218114853,-0.10123182833194733,0.029286272823810577
1764808570.621834,-0.15878946298658847,-0.060599137869477265,-0.11087445012331008,-0.09708569943904877,-0.14746244251728058,-0.018832245841622353,,,,,,
1764808570.625604,,,,,,,-0.015201032161712646,-0.012249529361724854,0.03727905452251434,-0.14703507721424103,-0.09795986860990524,0.018653802573680878
1764808570.631886,-0.17897125027179717,-0.04924246207475662,-0.14984569355249405,-0.09022406488656998,-0.16159583628177643,-0.023012077435851097,,,,,,
1764808570.635634,,,,,,,-0.013589799404144287,-0.006497323513031006,0.042052432894706726,-0.1572704166173935,-0.09786266088485718,0.028426004573702812
1764808570.641939,-0.16879472417235372,-0.02622983527779579,-0.17910737080685793,-0.07620178163051605,-0.16969111561775208,-0.03156533092260361,,,,,,
1764808570.645664,,,,,,,-0.012158095836639404,-0.010868728160858154,0.042024850845336914,-0.17045819759368896,-0.09745306521654129,0.02747458964586258
1764808570.65199,-0.14799801985919475,-0.01034019222855568,-0.1529237858235836,-0.0688149705529213,-0.1723122000694275,-0.03291555121541023,,,,,,
1764808570.655694,,,,,,,-0.01631760597229004,-0.015650928020477295,0.03915242850780487,-0.2007785439491272,-0.0870496928691864,0.020603900775313377
1764808570.662043,-0.11992109540998935,-0.04564180723428726,-0.15095686966478825,-0.0654299333691597,-0.17216061055660248,-0.034955546259880066,,,,,,
1764808570.665724,,,,,,,-0.017696857452392578,-0.012284040451049805,0.03925240784883499,-0.2146633416414261,-0.07225769758224487,0.027775859460234642
1764808570.672094,-0.08441139061152934,-0.05297171173095703,-0.13886954150795935,-0.06260005384683609,-0.17365704476833344,-0.042461395263671875,,,,,,
1764808570.675755,,,,,,,-0.012765347957611084,-0.005148172378540039,0.03636761009693146,-0.21161454916000366,-0.06504426151514053,0.033934421837329865
1764808570.682147,-0.06447510251998902,0.028691841477155682,-0.13130341710262,-0.057288117706775665,-0.17113710939884186,-0.04643973708152771,,,,,,
1764808570.685785,,,,,,,-0.009692549705505371,0.004457652568817139,0.03114539384841919,-0.20651870965957642,-0.05370957776904106,0.027021054178476334
1764808570.692199,-0.0631768794029951,0.055012277647852895,-0.12994498823098838,-0.049035780131816864,-0.16916076838970184,-0.04836200922727585,,,,,,
1764808570.695815,,,,,,,-0.00855344533920288,0.00830012559890747,0.031605012714862823,-0.20417937636375427,-0.05148690193891525,0.015560139901936054
1764808570.702252,-0.056181321427226066,0.020104045873880386,-0.13217260115258395,-0.03474685922265053,-0.16966034471988678,-0.04844919964671135,,,,,,
1764808570.705845,,,,,,,-0.01065140962600708,0.010791122913360596,0.0305405855178833,-0.20284396409988403,-0.04257756471633911,0.009271951392292976
1764808570.712304,-0.07731120321750641,-0.01106383032798767,-0.13352343123964966,-0.0176690723747015,-0.17024463415145874,-0.04795465245842934,,,,,,
1764808570.715875,,,,,,,-0.013615131378173828,0.012044012546539307,0.03222959488630295,-0.20184634625911713,-0.031878579407930374,0.01023068930953741
1764808570.722356,-0.08708791634440421,-0.010941665253043175,-0.14739472020380198,-0.0030334535986185074,-0.1655486524105072,-0.041619446128606796,,,,,,
1764808570.725905,,,,,,,-0.0190579891204834,0.009066641330718994,0.033500075340270996,-0.20118384063243866,-0.015771517530083656,0.0035890317521989346
1764808570.732408,-0.10221943450272082,0.008776011651754378,-0.1433153419356793,0.010745208710432053,-0.14699786901474,-0.04487515985965729,,,,,,
1764808570.735935,,,,,,,-0.021725594997406006,0.007469773292541504,0.033318765461444855,-0.19527003169059753,0.002718544565141201,-0.0063773151487112045
1764808570.74246,-0.09745032040476799,0.013373276314139365,-0.12340411522015929,0.026262596249580383,-0.12117384374141693,-0.05052332952618599,,,,,,
1764808570.745965,,,,,,,-0.020441949367523193,0.012990117073059082,0.030353009700775146,-0.17912425100803375,0.020924445241689682,-0.007519811391830444
1764808570.752513,-0.05168401000797748,0.013405425018072127,-0.10163250146023929,0.03849369287490845,-0.09396565705537796,-0.05206609517335892,,,,,,
1764808570.755995,,,,,,,-0.016910910606384277,0.023587465286254883,0.02356618642807007,-0.14636284112930298,0.03493347391486168,-0.006348819471895695
1764808570.762565,-0.01626958227753639,-0.007481880187988281,-0.09521978487372398,0.05075014382600784,-0.06806298345327377,-0.04751191660761833,,,,,,
1764808570.766025,,,,,,,-0.012977123260498047,0.028958678245544434,0.013926982879638672,-0.09504330158233643,0.04449129104614258,-0.00653151236474514
1764808570.772617,-0.016488193464279172,-0.0537269140124321,-0.07817921822369098,0.053221024572849274,-0.04438934102654457,-0.040552277117967606,,,,,,
1764808570.776055,,,,,,,-0.015053212642669678,0.033806443214416504,0.008354730904102325,-0.03886657953262329,0.05105065926909447,-0.011132122948765755
1764808570.782669,-0.04903320323824882,-0.11165770945549011,-0.07935074622109532,0.054219555109739304,-0.019650274887681007,-0.030336258932948112,,,,,,
1764808570.786085,,,,,,,-0.016839265823364258,0.028544127941131592,0.0018621087074279785,0.004347080364823341,0.052485302090644836,-0.009915192611515522
1764808570.792721,-0.04647065927386283,-0.16985446235835552,-0.07066007476523518,0.050612568855285645,0.003407906973734498,-0.029562611132860184,,,,,,
1764808570.796117,,,,,,,-0.017728686332702637,0.0187188982963562,0.0010802075266838074,0.018561702221632004,0.0585210919380188,-0.01908978261053562
1764808570.802774,-0.014810615640878676,-0.1505365984261036,-0.0657469490867108,0.047113705426454544,0.01945158839225769,-0.030971156433224678,,,,,,
1764808570.806146,,,,,,,-0.01731663942337036,0.013550043106079102,0.005884341895580292,0.02356196567416191,0.06443330645561218,-0.011233723722398281
1764808570.812826,0.005165419939160347,-0.114638186571002,-0.12066394966654478,0.047794144600629807,0.036326974630355835,-0.03116689994931221,,,,,,
1764808570.816176,,,,,,,-0.01563209295272827,0.006812632083892822,0.009441018104553223,0.028210779651999474,0.05782254412770271,4.8758694902062416e-05
1764808570.822878,0.0216588741004467,-0.1018850879818201,-0.11772380456142127,0.05009815841913223,0.053183674812316895,-0.03567109629511833,,,,,,
1764808570.826206,,,,,,,-0.01617377996444702,-0.0003972649574279785,0.010725319385528564,0.009153224527835846,0.05963482707738876,-0.006348154507577419
1764808570.83293,0.06193769299685955,-0.11849369295537471,-0.07237783846855163,0.04995407909154892,0.058911070227622986,-0.047002844512462616,,,,,,
1764808570.836236,,,,,,,-0.01769435405731201,-0.00537484884262085,0.009863078594207764,-0.011025813408195972,0.06858304142951965,0.0034070047549903393
1764808570.842982,0.11048691211044788,-0.1223240648984909,-0.04611132444217801,0.047271471470594406,0.04937036707997322,-0.051540981978178024,,,,,,
1764808570.846266,,,,,,,-0.016016840934753418,-0.006936788558959961,0.004145197570323944,-0.017399374395608902,0.07058334350585938,0.01592372916638851
1764808570.853035,0.1546229909569025,-0.1257739130914211,-0.007591185781359672,0.043701767921447754,0.03484947979450226,-0.05603666603565216,,,,,,
1764808570.856296,,,,,,,-0.011264681816101074,0.0004334449768066406,-0.0024701282382011414,-0.005346172489225864,0.06886613368988037,0.026286087930202484
1764808570.863087,0.18871347660720347,-0.12052256843447684,0.014025602743029594,0.039607588201761246,0.019563917070627213,-0.05630010738968849,,,,,,
1764808570.866326,,,,,,,-0.007561981678009033,0.0042269229888916016,-0.0055141448974609375,0.011772911995649338,0.0635581910610199,0.03559796139597893
1764808570.873139,0.14692191506028174,-0.0880646524220705,0.003598170622438192,0.034781940281391144,0.005326658021658659,-0.053125351667404175,,,,,,
1764808570.876356,,,,,,,-0.003993988037109375,0.0011729598045349121,-0.006318330764770508,0.02791379764676094,0.061506494879722595,0.05124536529183388
1764808570.883191,0.08876432512402534,-0.06326397316455841,-0.0028853461779654024,0.02938307262957096,-0.0031106285750865936,-0.057666003704071045,,,,,,
1764808570.886386,,,,,,,-0.00016826391220092773,-0.00922316312789917,-0.004863262176513672,0.029328634962439537,0.057839855551719666,0.0507659986615181
1764808570.893243,0.04573065456151962,-0.04149696251451969,0.06701017395555972,0.025022679939866066,-0.013600287027657032,-0.06541740149259567,,,,,,
1764808570.896416,,,,,,,0.0010138154029846191,-0.010995328426361084,-0.002510249614715576,0.021690422669053078,0.05835837125778198,0.047976601868867874
1764808570.903296,0.015098784932494162,-0.008795300874114035,0.07471651054918765,0.020651208236813545,-0.02338413894176483,-0.0715404748916626,,,,,,
1764808570.906447,,,,,,,0.0019817352294921875,-0.004822671413421631,-0.0018003061413764954,0.024248123168945312,0.055829968303442,0.06096084415912628
1764808570.913348,-0.036193010887503624,0.014143091642856598,0.04299026981219649,0.024864062666893005,-0.024173233658075333,-0.07145099341869354,,,,,,
1764808570.916477,,,,,,,0.004053056240081787,-0.006243228912353516,-0.0010112002491950989,0.03223307803273201,0.05690189078450203,0.06235554441809654
1764808570.9234,-0.06337561684548855,0.04361000914573669,0.05089607450067997,0.025450490415096283,-0.013267476111650467,-0.06826979666948318,,,,,,
1764808570.926507,,,,,,,0.002017676830291748,-0.007706582546234131,-0.0013298466801643372,0.030673246830701828,0.059571441262960434,0.049463845789432526
1764808570.933452,-0.10864391459226608,0.04846738604903221,0.10524667336940764,0.021675191819667816,0.0034862039610743523,-0.06407824903726578,,,,,,
1764808570.936537,,,,,,,0.00614774227142334,-0.009803593158721924,-0.0014019683003425598,0.020553501322865486,0.05630134791135788,0.04353005439043045
1764808570.943504,-0.13890052116811274,0.04508651143908501,0.13935060302317143,0.016579020768404007,0.018261969089508057,-0.06375192105770111,,,,,,
1764808570.946568,,,,,,,0.010638058185577393,-0.006213843822479248,-0.0037540197372436523,0.01999397948384285,0.05538362264633179,0.043601494282484055
1764808570.953557,-0.13553133699595926,0.056821957418322556,0.11098141762912273,0.015055426396429539,0.02996017038822174,-0.06173058599233627,,,,,,
1764808570.956597,,,,,,,0.012710988521575928,-0.0006076693534851074,-0.008163988590240479,0.03594524785876274,0.05381342023611069,0.04686519876122475
1764808570.963609,-0.11992518706321716,0.09624211365878581,0.11370002893805503,0.013517666608095169,0.0418369397521019,-0.05411487817764282,,,,,,
1764808570.966627,,,,,,,0.015110254287719727,-0.0012387633323669434,-0.007695190608501434,0.05736011266708374,0.05177530273795128,0.042914800345897675
1764808570.973661,-0.11363339344263076,0.1388806474238634,0.11826463343985379,0.011467032134532928,0.05284085497260094,-0.045261200517416,,,,,,
1764808570.976657,,,,,,,0.015447676181793213,0.0001081228256225586,-0.003327317535877228,0.06240973249077797,0.05159847065806389,0.04013339430093765
1764808570.983713,-0.11498071639835834,0.13601298303306103,0.12014438277184962,0.012771446257829666,0.06191228702664375,-0.04005131125450134,,,,,,
1764808570.986687,,,,,,,0.019590437412261963,-0.005680501461029053,-0.0010013580322265625,0.07508394122123718,0.04473976418375969,0.04590785875916481
1764808570.993765,-0.1333048931181431,0.11652969940602778,0.1250163727223873,0.015727821737527847,0.06990230828523636,-0.041207656264305115,,,,,,
1764808570.996717,,,,,,,0.020212650299072266,-0.020436465740203857,0.00015038996934890747,0.0808856338262558,0.04458184167742729,0.057065706700086594
1764808571.003817,-0.16717735210359094,0.0831190127134323,0.16233751085698603,0.015364940278232098,0.07297592610120773,-0.05066181346774101,,,,,,
1764808571.006747,,,,,,,0.017765283584594727,-0.033882975578308105,0.0027912333607673645,0.06897325813770294,0.04697868600487709,0.05252242088317871
1764808571.01387,-0.17924188390672205,0.047884033203124995,0.1987023711800575,0.012856508605182171,0.07927057892084122,-0.06543517112731934,,,,,,
1764808571.016778,,,,,,,0.013947367668151855,-0.0399661660194397,0.003946185111999512,0.05289549008011818,0.05207011476159096,0.05632221698760986
1764808571.023922,-0.18525602962970733,-0.0030430209577083584,0.214088229425624,0.0066121965646743774,0.08078606426715851,-0.08181179314851761,,,,,,
1764808571.026809,,,,,,,0.01131439208984375,-0.037049710750579834,7.3909759521484375e-06,0.039998989552259445,0.06035228073596954,0.07124204188585281
1764808571.033974,-0.15106149908304214,-0.020398644906282425,0.18078560621738432,0.0015596477314829826,0.08200313150882721,-0.10073568671941757,,,,,,
1764808571.036839,,,,,,,0.009972631931304932,-0.031657636165618896,-0.0027118921279907227,0.04261554777622223,0.07084300369024277,0.0922304168343544
1764808571.044026,-0.10599193877875804,-0.001235094752907753,0.15662388245053588,-0.006950168404728174,0.08417677879333496,-0.11470724642276764,,,,,,
1764808571.046869,,,,,,,0.01048576831817627,-0.03090602159500122,-0.0028229430317878723,0.05321543663740158,0.07118681818246841,0.11371280997991562
1764808571.054078,-0.08767652988731861,0.03545709782838821,0.13752470277026294,-0.01515643298625946,0.08499383926391602,-0.12148845195770264,,,,,,
1764808571.056899,,,,,,,0.012583553791046143,-0.03505951166152954,-0.0038775205612182617,0.07011372596025467,0.06710711866617203,0.13055196404457092
1764808571.064131,-0.09584697686135768,0.030567572221159932,0.15915946534276007,-0.023765791207551956,0.08405215293169022,-0.13193559646606445,,,,,,
1764808571.066929,,,,,,,0.016153037548065186,-0.039613544940948486,-0.0038096830248832703,0.08192314207553864,0.06367723643779755,0.14995869994163513
1764808571.074183,-0.12657003190517424,0.010502104791998862,0.17672317908406257,-0.02914777398109436,0.07892876863479614,-0.14529427886009216,,,,,,
1764808571.076959,,,,,,,0.016272127628326416,-0.04099684953689575,-0.002669990062713623,0.08718874305486679,0.060968801379203796,0.17018726468086243
1764808571.084235,-0.16761808160841463,-0.009634089785814285,0.19923319012112914,-0.03674140200018883,0.06623747944831848,-0.15875664353370667,,,,,,
1764808571.086989,,,,,,,0.01485222578048706,-0.0407869815826416,-0.00013512372970581055,0.08463314920663834,0.05895784869790077,0.1914774477481842
1764808571.094287,-0.22092589342594146,-0.024901217022538183,0.19348733994551,-0.05055761709809303,0.05407882109284401,-0.17444559931755066,,,,,,
1764808571.097019,,,,,,,0.01314389705657959,-0.045688092708587646,0.0019235536456108093,0.07566601783037186,0.05746594816446304,0.2096298187971115
1764808571.104339,-0.2614747614353895,-0.0046522097200155255,0.17908939675875007,-0.06339672207832336,0.04572847858071327,-0.19114840030670166,,,,,,
1764808571.107049,,,,,,,0.013563096523284912,-0.05309516191482544,0.0038936063647270203,0.05748959630727768,0.05780603364109993,0.22680974006652832
1764808571.114392,-0.29112404976785183,0.03228431301116943,0.16337094555795192,-0.0724867731332779,0.04457146301865578,-0.2077775001525879,,,,,,
1764808571.117079,,,,,,,0.014384984970092773,-0.054258525371551514,0.00973241776227951,0.030210571363568306,0.057111214846372604,0.23817797005176544
1764808571.124444,-0.3138905928492546,0.07153086625039577,0.1331026485443115,-0.07441267371177673,0.05110960453748703,-0.2270864099264145,,,,,,
1764808571.127109,,,,,,,0.014387011528015137,-0.05204075574874878,0.014591582119464874,0.01744828186929226,0.05911870300769806,0.26010677218437195
1764808571.134496,-0.33468028289973734,0.10905892513394355,0.0793155287772417,-0.07175803184509277,0.06422168016433716,-0.24476474523544312,,,,,,
1764808571.137139,,,,,,,0.014168202877044678,-0.0487629771232605,0.01687842607498169,0.018587850034236908,0.06436246633529663,0.28422728180885315
1764808571.144548,-0.32461423143744467,0.08424187926352024,0.11502747814953326,-0.06837543845176697,0.0758727565407753,-0.26174384355545044,,,,,,
1764808571.14717,,,,,,,0.010358750820159912,-0.045758724212646484,0.017141282558441162,0.022819776087999344,0.07557463645935059,0.29841530323028564
1764808571.1546,-0.3561445112109184,0.04407938022315502,0.1318212304316461,-0.06949582695960999,0.09298702329397202,-0.27841150760650635,,,,,,
1764808571.1572,,,,,,,0.009075462818145752,-0.0439831018447876,0.018091313540935516,0.029943998903036118,0.08928832411766052,0.31383445858955383
1764808571.164653,-0.3292559197634458,0.03981646208167076,0.12496727288365363,-0.07206567376852036,0.11005129665136337,-0.29828739166259766,,,,,,
1764808571.16723,,,,,,,0.008350789546966553,-0.046154916286468506,0.014570474624633789,0.02710888162255287,0.09375151246786118,0.3342525064945221
1764808571.174705,-0.29934710371196266,0.012574234890937805,0.12780286163575946,-0.07549768686294556,0.12326084822416306,-0.31683096289634705,,,,,,
1764808571.17726,,,,,,,0.009449779987335205,-0.04290163516998291,0.010470390319824219,0.023049158975481987,0.0985310897231102,0.34565749764442444
1764808571.184757,-0.25670506281554695,-0.05700140563845634,0.13005027523636817,-0.08163771778345108,0.12294521182775497,-0.3331671357154846,,,,,,
1764808571.18729,,,,,,,0.007402002811431885,-0.03892052173614502,0.00489962100982666,0.015603114850819111,0.1025809571146965,0.3488934338092804
1764808571.194809,-0.18385551518201826,-0.10924071144163608,0.0689333240378648,-0.09032521396875381,0.11377834528684616,-0.34825074672698975,,,,,,
1764808571.19732,,,,,,,-0.0004851222038269043,-0.030932128429412842,0.011355690658092499,0.004990683868527412,0.1184089258313179,0.3600379526615143
1764808571.204861,-0.13500000659823416,-0.07837678662240505,-0.005774564813449979,-0.09411148726940155,0.10750269144773483,-0.3616797626018524,,,,,,
1764808571.20735,,,,,,,-0.006905019283294678,-0.02093791961669922,0.01860005408525467,0.0023754597641527653,0.12835609912872314,0.37654903531074524
1764808571.214914,-0.09491934062242507,0.0038783027380704877,-0.08532565591223537,-0.08918596804141998,0.1067303717136383,-0.37019363045692444,,,,,,
1764808571.21738,,,,,,,-0.006863594055175781,-0.015606224536895752,0.02125399559736252,0.012712519615888596,0.1312488317489624,0.3879356384277344
1764808571.224966,-0.05509703332185745,0.01702478455901146,-0.11015950678698717,-0.08043162524700165,0.10692072659730911,-0.37118980288505554,,,,,,
1764808571.22741,,,,,,,-0.007665157318115234,-0.013887643814086914,0.018360435962677002,0.02813863195478916,0.12823866307735443,0.3943238854408264
1764808571.235018,-0.02559855163693428,-0.053009705653786654,-0.08898943911679089,-0.07150444388389587,0.10531404614448547,-0.3719775676727295,,,,,,
1764808571.23744,,,,,,,-0.008889913558959961,-0.010917484760284424,0.015551932156085968,0.040915947407484055,0.12668336927890778,0.3969478905200958
1764808571.24507,-0.018119009536504745,-0.14987667321264742,-0.04597440018951893,-0.07205668091773987,0.10185244679450989,-0.3691652715206146,,,,,,
1764808571.24747,,,,,,,-0.014391541481018066,0.00029838085174560547,0.010404162108898163,0.05258529260754585,0.12447746843099594,0.39670616388320923
1764808571.255122,0.0001467149943113327,-0.20151099886000154,-0.023171105294302104,-0.07659124583005905,0.09551465511322021,-0.3664722740650177,,,,,,
1764808571.257501,,,,,,,-0.018779456615447998,0.01133275032043457,0.0023837611079216003,0.06818395853042603,0.12589506804943085,0.3952086865901947
1764808571.265174,0.04511164588034153,-0.20488018303215502,-0.050320393504574894,-0.0786140188574791,0.09557758271694183,-0.3641245663166046,,,,,,
1764808571.267531,,,,,,,-0.021136462688446045,0.015529394149780273,-0.0018616393208503723,0.06957671791315079,0.12408837676048279,0.38290950655937195
1764808571.275227,0.09772270760536193,-0.171306414732337,-0.07344575996100902,-0.07652103900909424,0.10336945950984955,-0.35031554102897644,,,,,,
1764808571.277561,,,,,,,-0.025990664958953857,0.020502150058746338,-0.0015200898051261902,0.05863671004772186,0.12427639961242676,0.35861989855766296
1764808571.285279,0.1431897427946329,-0.15751403622329235,-0.11565766581185162,-0.07215127348899841,0.10885383933782578,-0.334030419588089,,,,,,
1764808571.287591,,,,,,,-0.0282781720161438,0.02737504243850708,0.002113163471221924,0.04708214849233627,0.12237809598445892,0.34327390789985657
1764808571.295331,0.1795230389356613,-0.1497995163232088,-0.14181144017875194,-0.057114534080028534,0.1104205772280693,-0.31728899478912354,,,,,,
1764808571.297621,,,,,,,-0.03151971101760864,0.03598970174789429,0.006284244358539581,0.03745562210679054,0.12258369475603104,0.32616496086120605
1764808571.305383,0.2153250046789646,-0.1655810228228569,-0.16005166494213044,-0.04285921901464462,0.1124829649925232,-0.3000018000602722,,,,,,
1764808571.307651,,,,,,,-0.03232002258300781,0.04165226221084595,0.003986954689025879,0.03269476816058159,0.12304335832595825,0.30676525831222534
1764808571.315435,0.24882453869879245,-0.18131226043999193,-0.16910927001424134,-0.03401273116469383,0.11396687477827072,-0.28530141711235046,,,,,,
1764808571.317681,,,,,,,-0.0360981822013855,0.04485440254211426,0.0021380260586738586,0.034835685044527054,0.12448625266551971,0.28906458616256714
1764808571.325488,0.29268589225709435,-0.22165713030993936,-0.1674017354439944,-0.030154500156641006,0.12237224727869034,-0.2709316909313202,,,,,,
1764808571.327711,,,,,,,-0.03386950492858887,0.046548306941986084,-0.001899711787700653,0.039643045514822006,0.12052959948778152,0.26998937129974365
1764808571.33554,0.3734551269739866,-0.24447043514251707,-0.1729652147900313,-0.0287984199821949,0.1265246421098709,-0.26183804869651794,,,,,,
1764808571.337741,,,,,,,-0.035362184047698975,0.051373064517974854,-0.005712203681468964,0.030779516324400902,0.11979349702596664,0.24634234607219696
1764808571.345592,0.47565585677623745,-0.22883915076851843,-0.16762268471829592,-0.023050032556056976,0.11779574304819107,-0.24745634198188782,,,,,,
1764808571.347771,,,,,,,-0.03673899173736572,0.06102585792541504,-0.00908714160323143,0.025814512744545937,0.11512631177902222,0.228274866938591
1764808571.355644,0.5664420431166887,-0.21655542325675486,-0.19388532628715038,-0.014337235130369663,0.09733334928750992,-0.23028454184532166,,,,,,
1764808571.357801,,,,,,,-0.035549283027648926,0.06729334592819214,-0.012767907232046127,0.026507200673222542,0.11081864684820175,0.21018001437187195
1764808571.365696,0.6292214476346969,-0.2294201655268669,-0.22942593768052755,-0.00212046317756176,0.07780328392982483,-0.20473478734493256,,,,,,
1764808571.367831,,,,,,,-0.041156888008117676,0.07054340839385986,-0.008052706718444824,0.022136695683002472,0.11358913034200668,0.17887836694717407
1764808571.375749,0.6397475178241729,-0.186019415217638,-0.2709855171024799,0.014680621214210987,0.06180514022707939,-0.17841316759586334,,,,,,
1764808571.377862,,,,,,,-0.047026097774505615,0.07400751113891602,0.0006527900695800781,0.005583285354077816,0.11919216066598892,0.15096816420555115
1764808571.385801,0.6209650759428739,-0.12901274888217448,-0.3314524799596518,0.03398863971233368,0.05028391629457474,-0.1578003466129303,,,,,,
1764808571.387892,,,,,,,-0.04679673910140991,0.07728457450866699,0.004320207983255386,-0.023762382566928864,0.12819737195968628,0.1265752762556076
1764808571.395853,0.6270388428986072,-0.08512859897017479,-0.35735388700067994,0.053279247134923935,0.04571978747844696,-0.1388157308101654,,,,,,
1764808571.397922,,,,,,,-0.04721486568450928,0.083554208278656,0.005971498787403107,-0.06818044930696487,0.13750086724758148,0.09673482179641724
1764808571.405905,0.6715396634042262,-0.12271744813024997,-0.36889169151596723,0.0768323466181755,0.04065895453095436,-0.11807554960250854,,,,,,
1764808571.407952,,,,,,,-0.04510068893432617,0.09507012367248535,0.003272954374551773,-0.10165758430957794,0.13352449238300323,0.06998330354690552
1764808571.415957,0.739271721893549,-0.23942308862507342,-0.3576735474091023,0.09680845588445663,0.036296430975198746,-0.08953098952770233,,,,,,
1764808571.417982,,,,,,,-0.04564237594604492,0.1003376841545105,-0.0001913309097290039,-0.13550423085689545,0.13368216156959534,0.05131454020738602
1764808571.42601,0.8005068195790052,-0.30830723975896834,-0.3897673062842339,0.10592259466648102,0.03911084681749344,-0.06174224615097046,,,,,,
1764808571.428012,,,,,,,-0.05462568998336792,0.10472577810287476,0.0015109777450561523,-0.17465174198150635,0.1483183652162552,0.027452019974589348
1764808571.436062,0.8972387625813484,-0.31447686830461025,-0.46116840867511927,0.11197969317436218,0.0468667708337307,-0.03248528763651848,,,,,,
1764808571.438042,,,,,,,-0.06700772047042847,0.11779862642288208,0.0007481016218662262,-0.2203851342201233,0.18082623183727264,0.0013964514946565032
1764808571.446114,1.014635892471671,-0.27399638935625553,-0.5668184021484106,0.12300245463848114,0.05704600363969803,-0.0026437989436089993,,,,,,
1764808571.448072,,,,,,,-0.07686549425125122,0.14306896924972534,-0.0022071078419685364,-0.27863943576812744,0.2341350018978119,-0.0010099143255501986
1764808571.456166,1.1237819113671779,-0.19692776272296905,-0.6727355951905251,0.14609234035015106,0.05773336440324783,0.020581096410751343,,,,,,
1764808571.458102,,,,,,,-0.08009833097457886,0.165596604347229,0.0013817548751831055,-0.3721987009048462,0.2476649135351181,-0.03668508678674698
1764808571.466218,1.2844342456161975,0.019417817175388336,-0.7440501152765006,0.19245754182338715,0.06158017739653587,0.05878996104001999,,,,,,
1764808571.468132,,,,,,,-0.0680573582649231,0.18425267934799194,0.01209825649857521,-0.4849107265472412,0.2221587598323822,-0.12570863962173462
1764808571.47627,1.452949568325281,0.2293330717653036,-0.8208942855041473,0.2556455433368683,0.08053628355264664,0.1275666207075119,,,,,,
1764808571.478162,,,,,,,-0.05175673961639404,0.1929258108139038,0.03446483984589577,-0.6750361919403076,0.19258622825145721,-0.20623917877674103
1764808571.486323,1.732462090754509,0.3635696927756071,-1.1064116743713617,0.3472513258457184,0.11601176857948303,0.2248423993587494,,,,,,
1764808571.488192,,,,,,,-0.04445362091064453,0.2069302201271057,0.06234503164887428,-1.0735583305358887,0.14759397506713867,-0.2839207351207733
1764808571.496375,2.149295756205916,0.4261550360262394,-1.2492004351496695,0.4640892744064331,0.14016717672348022,0.33866989612579346,,,,,,
1764808571.498223,,,,,,,-0.041669368743896484,0.23206490278244019,0.07858645915985107,-1.4372597932815552,0.07022567838430405,-0.4587159752845764
1764808571.506427,2.4842934344917533,0.3688151922136545,-1.0952893918544053,0.5720537304878235,0.10774417966604233,0.4586314558982849,,,,,,
1764808571.508253,,,,,,,-0.040942251682281494,0.23933619260787964,0.04194962978363037,-1.5523260831832886,0.011071816086769104,-0.5881674885749817
1764808571.516479,2.6481132928609847,0.05966857902109623,-0.870763355044648,0.6314986944198608,0.043614462018013,0.571818470954895,,,,,,
1764808571.518283,,,,,,,-0.04752880334854126,0.26546114683151245,-0.008489131927490234,-1.4675105810165405,0.011940538883209229,-0.6791064739227295
1764808571.526531,2.635385913234949,-0.37456571856439114,-0.5304296494930982,0.6349158883094788,0.00408715195953846,0.6530645489692688,,,,,,
1764808571.528313,,,,,,,-0.06405693292617798,0.3316270709037781,-0.06610405445098877,-1.3118062019348145,0.022141244262456894,-0.8471910357475281
1764808571.536584,2.570240948629379,-0.5967208615243434,-0.14427344637811182,0.6042267084121704,-0.05300889164209366,0.7292122840881348,,,,,,
1764808571.538343,,,,,,,-0.08467799425125122,0.38402414321899414,-0.10031068325042725,-1.2329031229019165,0.06454729288816452,-1.0514193773269653
1764808571.546636,2.6108932770133015,-0.4761152909815311,-0.10058978747427463,0.5923745632171631,-0.12742958962917328,0.8145967125892639,,,,,,
1764808571.548373,,,,,,,-0.09126365184783936,0.39991074800491333,-0.10064029693603516,-1.210435152053833,0.11735218018293381,-1.2291227579116821
1764808571.556688,2.702942030635476,-0.17451953155994415,-0.4359574681162834,0.6229361891746521,-0.18202678859233856,0.9214707016944885,,,,,,
1764808571.558403,,,,,,,-0.08403319120407104,0.4027559161186218,-0.09713339805603027,-1.2012616395950317,0.14681899547576904,-1.3704333305358887
1764808571.56674,2.8590163894444705,0.13099720069766044,-0.7546534154206513,0.6796817183494568,-0.1955128312110901,1.0496853590011597,,,,,,
1764808571.568433,,,,,,,-0.0710679292678833,0.4320785403251648,-0.08778488636016846,-1.1847593784332275,0.18057243525981903,-1.509486436843872
1764808571.576792,3.0258541343301535,0.3258049025267362,-1.0214923342376947,0.7521700859069824,-0.17445307970046997,1.192513108253479,,,,,,
1764808571.578463,,,,,,,-0.06966269016265869,0.46220940351486206,-0.04340898245573044,-1.1203428506851196,0.23298078775405884,-1.655053734779358
1764808571.586845,3.1360248200982808,0.42020401866734025,-1.292314769732952,0.8480561971664429,-0.111757792532444,1.3457527160644531,,,,,,
1764808571.588493,,,,,,,-0.07355421781539917,0.4917588233947754,0.0055980682373046875,-1.0246100425720215,0.27922284603118896,-1.815371036529541
1764808571.596897,3.1524341031074523,0.44014498293399806,-1.3218132514178753,0.9433305263519287,-0.037580497562885284,1.4977015256881714,,,,,,
1764808571.598523,,,,,,,-0.07070058584213257,0.5398774743080139,0.0317457839846611,-0.8669735789299011,0.3276100754737854,-1.959996223449707
1764808571.606949,3.1351597277015446,0.3979068466633558,-1.2244355578579007,1.0370430946350098,0.01778426580131054,1.6395187377929688,,,,,,
1764808571.608553,,,,,,,-0.06331819295883179,0.581319272518158,0.026922456920146942,-0.6644051671028137,0.38497164845466614,-2.0855472087860107
1764808571.617001,3.102394353175163,0.3112637514770031,-1.1649912891119718,1.126901626586914,0.08311613649129868,1.7851723432540894,,,,,,
1764808571.618583,,,,,,,-0.06035107374191284,0.5950777530670166,0.025022044777870178,-0.5015036463737488,0.4480462074279785,-2.23319935798645
1764808571.627053,3.0729788735985752,0.23603636879622936,-1.0796551848709584,1.2003469467163086,0.1882842481136322,1.9254316091537476,,,,,,
1764808571.628614,,,,,,,-0.055758774280548096,0.5907757878303528,0.022913210093975067,-0.3423084020614624,0.5332487225532532,-2.3656108379364014
1764808571.637105,3.0179093128055334,0.1773141307145357,-0.986912603765726,1.2539420127868652,0.31116488575935364,2.0544826984405518,,,,,,
1764808571.638644,,,,,,,-0.044268012046813965,0.5672047734260559,0.02053999900817871,-0.20984944701194763,0.6118412613868713,-2.4800918102264404
1764808571.647158,3.031744361412525,0.15697393799722192,-0.9659830668531357,1.307207703590393,0.4224121570587158,2.1810126304626465,,,,,,
1764808571.648674,,,,,,,-0.026762306690216064,0.54859858751297,0.01932358741760254,-0.09577641636133194,0.6841098666191101,-2.605039596557617
1764808571.65721,3.0361896503835917,0.21641981417834757,-0.8439268591105937,1.3511841297149658,0.5060825347900391,2.314405679702759,,,,,,
1764808571.658704,,,,,,,-0.003956019878387451,0.5383080840110779,0.014989376068115234,0.04074174910783768,0.7531909346580505,-2.7141292095184326
1764808571.667262,3.055519789275527,0.33844986456632614,-0.7756061870783567,1.3840073347091675,0.5604831576347351,2.4448230266571045,,,,,,
1764808571.668734,,,,,,,0.019775718450546265,0.5222214460372925,0.02438795566558838,0.16781872510910034,0.818751335144043,-2.843611478805542
1764808571.677314,3.074059654572606,0.5901613568782806,-0.8848872305303811,1.4272831678390503,0.601129412651062,2.566373825073242,,,,,,
1764808571.678764,,,,,,,0.0423712432384491,0.5360884666442871,0.057402610778808594,0.23861593008041382,0.8920710682868958,-2.959958076477051
1764808571.687366,3.039594490391016,0.8660486745476722,-0.960862216708064,1.4825892448425293,0.6276204586029053,2.6850013732910156,,,,,,
1764808571.688794,,,,,,,0.07592529058456421,0.5346008539199829,0.07614637911319733,0.3684570789337158,0.9331716299057007,-3.0440027713775635
1764808571.697419,2.9813533138245343,1.0017845942050219,-1.0152394113227725,1.53170645236969,0.652373194694519,2.798218011856079,,,,,,
1764808571.698824,,,,,,,0.10968440771102905,0.4842938184738159,0.08869673311710358,0.43837970495224,0.9656260013580322,-3.1245906352996826
1764808571.707471,2.835172572520375,1.0362959356158972,-1.0271405692577362,1.5751450061798096,0.6779181957244873,2.89998722076416,,,,,,
1764808571.708854,,,,,,,0.12868985533714294,0.43318355083465576,0.11787690222263336,0.47122299671173096,1.0284570455551147,-3.210501194000244
1764808571.717523,2.6133593748658894,1.2243453953564167,-1.0388374367922544,1.6347750425338745,0.678017258644104,2.9819653034210205,,,,,,
1764808571.718884,,,,,,,0.14073610305786133,0.39213836193084717,0.15617609024047852,0.5127241015434265,1.111728549003601,-3.3157730102539062
1764808571.727575,2.4675796155780554,1.6316870098412035,-1.1132196008205413,1.7159156799316406,0.690763533115387,3.060030460357666,,,,,,
1764808571.728914,,,,,,,0.1592569649219513,0.4058958888053894,0.2016996294260025,0.5430623888969421,1.1937386989593506,-3.398550510406494
1764808571.737627,2.284339601945877,1.9136554009899496,-1.2627622197732329,1.8007457256317139,0.730652391910553,3.1514170169830322,,,,,,
1764808571.738945,,,,,,,0.19413405656814575,0.4381936192512512,0.20605529844760895,0.6552405953407288,1.2180280685424805,-3.4405272006988525
1764808571.74768,2.057047680619359,1.8609093147084115,-1.2311661812871695,1.8599854707717896,0.7999923825263977,3.2410781383514404,,,,,,
1764808571.748975,,,,,,,0.22859443724155426,0.42028874158859253,0.180389404296875,0.7643575668334961,1.2421531677246094,-3.489206075668335
1764808571.757732,1.9098527938365935,1.5998443031176923,-1.0639853220522404,1.879293441772461,0.8738048076629639,3.3089771270751953,,,,,,
1764808571.759005,,,,,,,0.23897209763526917,0.3912643790245056,0.17217791080474854,0.8443498611450195,1.317961573600769,-3.527923107147217
1764808571.767784,1.9004384842813014,1.453262872058153,-0.918728125333786,1.874240517616272,0.9366710782051086,3.3587682247161865,,,,,,
1764808571.769035,,,,,,,0.2479030042886734,0.3764611482620239,0.17856311798095703,0.9904587864875793,1.3950920104980469,-3.575399160385132
1764808571.777836,1.9044611639261244,1.6224322747617959,-0.939185222429037,1.8657152652740479,0.9848290085792542,3.4058024883270264,,,,,,
1764808571.779065,,,,,,,0.26451095938682556,0.3847231864929199,0.19701220095157623,1.131240963935852,1.4575581550598145,-3.6366336345672607
1764808571.787888,1.8459341561555862,1.9334221777334808,-1.027968836775422,1.8631919622421265,1.013325572013855,3.4751322269439697,,,,,,
1764808571.789095,,,,,,,0.29864004254341125,0.3979480266571045,0.21272194385528564,1.2467734813690186,1.4579200744628906,-3.6955952644348145
1764808571.79794,1.6548498587638139,2.043041367098689,-1.0005927540719508,1.8666365146636963,1.0142512321472168,3.561079263687134,,,,,,
1764808571.799125,,,,,,,0.33588817715644836,0.35474318265914917,0.20043230056762695,1.3536262512207031,1.4299999475479126,-3.7215793132781982
1764808571.807992,1.35806003831923,1.9349324361659586,-0.9179125711672007,1.8601438999176025,0.9955973029136658,3.6251332759857178,,,,,,
1764808571.809155,,,,,,,0.34982240200042725,0.2791839838027954,0.195459246635437,1.398800015449524,1.4275206327438354,-3.7478606700897217
1764808571.818045,1.1781102984040974,1.8461634348668157,-0.92764471450001,1.854070782661438,0.9878179430961609,3.6530075073242188,,,,,,
1764808571.819185,,,,,,,0.34198328852653503,0.25794488191604614,0.2233116626739502,1.3984569311141968,1.4641473293304443,-3.7590556144714355
1764808571.828097,1.1086889716535806,1.8765632493056357,-1.0702559267543255,1.855477213859558,1.0035003423690796,3.6558635234832764,,,,,,
1764808571.829215,,,,,,,0.34386521577835083,0.2746713161468506,0.24206531047821045,1.4640625715255737,1.4775387048721313,-3.7573232650756836
1764808571.838149,1.1108452729046343,2.092658653835207,-1.1049988849639891,1.8531395196914673,1.011797308921814,3.653651237487793,,,,,,
1764808571.839245,,,,,,,0.3561438024044037,0.265900194644928,0.248443603515625,1.521565318107605,1.4943633079528809,-3.7832040786743164
1764808571.848201,1.1620792010575531,2.333530333833396,-1.1514262896180152,1.8535529375076294,1.0057704448699951,3.6572113037109375,,,,,,
1764808571.849275,,,,,,,0.37342843413352966,0.2589578628540039,0.27155768871307373,1.474220871925354,1.5157936811447144,-3.799813747406006
1764808571.858254,1.1918342878520487,2.475595748773217,-1.2634756287395954,1.873015284538269,0.970602810382843,3.6806442737579346,,,,,,
1764808571.859306,,,,,,,0.3984836935997009,0.22629648447036743,0.2779392600059509,1.4317940473556519,1.4853085279464722,-3.8189425468444824
1764808571.868306,1.1400000557184218,2.546252754798531,-1.3150643616795539,1.9040567874908447,0.9056991338729858,3.7128543853759766,,,,,,
1764808571.869336,,,,,,,0.4104596972465515,0.1705426573753357,0.29321736097335815,1.3243645429611206,1.4619795083999634,-3.8533289432525635
1764808571.878358,1.0689508355051278,2.6818895979955792,-1.3753892126522957,1.9286651611328125,0.8261377811431885,3.7448508739471436,,,,,,
1764808571.879366,,,,,,,0.40903472900390625,0.17806130647659302,0.32388049364089966,1.150519847869873,1.47531259059906,-3.860848903656006
1764808571.88841,0.9489970068693161,2.7140824333310127,-1.4933295095086097,1.9407575130462646,0.7707954049110413,3.769918918609619,,,,,,
1764808571.889396,,,,,,,0.41506683826446533,0.1929451823234558,0.31050288677215576,1.125076413154602,1.4631558656692505,-3.824413537979126
1764808571.898462,0.7780804682374,2.5447528716295955,-1.500330328181386,1.9387249946594238,0.7400971055030823,3.771432876586914,,,,,,
1764808571.899426,,,,,,,0.41694292426109314,0.16335171461105347,0.2915953993797302,1.1211097240447998,1.4445037841796875,-3.8039157390594482
1764808571.908515,0.6063035133838653,2.3323108750410375,-1.4125661200106143,1.9276446104049683,0.7129437923431396,3.746673345565796,,,,,,
1764808571.909456,,,,,,,0.40581610798835754,0.15922200679779053,0.29046380519866943,1.0887378454208374,1.4536226987838745,-3.7933290004730225
1764808571.918567,0.4975748431175947,2.3270168602861463,-1.279410864496231,1.9149138927459717,0.6696666479110718,3.7160720825195312,,,,,,
1764808571.919486,,,,,,,0.399010568857193,0.1526537537574768,0.2836284637451172,1.0715304613113403,1.4730929136276245,-3.7967445850372314
1764808571.928619,0.5435159255594014,2.607938518860936,-1.2536848870873452,1.9100064039230347,0.6252241134643555,3.6974217891693115,,,,,,
1764808571.929516,,,,,,,0.4020524322986603,0.17706352472305298,0.3033437728881836,0.9907917380332947,1.5292162895202637,-3.810804605484009
1764808571.938671,0.6072130294442176,2.955612431107461,-1.3640133937656878,1.9169732332229614,0.5890884399414062,3.706559181213379,,,,,,
1764808571.939546,,,,,,,0.4212616980075836,0.211806058883667,0.3154943585395813,1.0007890462875366,1.5463361740112305,-3.7882680892944336
1764808571.948723,0.4646703523814678,3.0346710625141857,-1.3985060304760932,1.9285073280334473,0.5570240616798401,3.734532117843628,,,,,,
1764808571.949576,,,,,,,0.44525715708732605,0.17800068855285645,0.28503555059432983,1.0786428451538086,1.5046111345291138,-3.75439715385437
1764808571.958775,0.10624503675699233,2.806828521567583,-1.251178457224369,1.9225780963897705,0.5028438568115234,3.7406697273254395,,,,,,
1764808571.959606,,,,,,,0.4476507306098938,0.11589443683624268,0.2676835358142853,1.0519044399261475,1.4904955625534058,-3.7713465690612793
1764808571.968828,-0.15254969181418418,2.597334122738242,-1.1196902581393717,1.909953236579895,0.4477275311946869,3.7046852111816406,,,,,,
1764808571.969636,,,,,,,0.4316466450691223,0.09015309810638428,0.28387510776519775,0.9349086284637451,1.5247137546539307,-3.800689458847046
1764808571.97888,-0.19061551083624362,2.6477298465013503,-1.112808097410202,1.9062964916229248,0.4220711886882782,3.6567375659942627,,,,,,
1764808571.979667,,,,,,,0.42640525102615356,0.10244560241699219,0.3047431707382202,0.8802650570869446,1.5810582637786865,-3.766984224319458
1764808571.988932,-0.13614976115524768,2.886622481511533,-1.1454594901680946,1.903491497039795,0.4488660395145416,3.6261584758758545,,,,,,
1764808571.989697,,,,,,,0.4354456067085266,0.11941486597061157,0.30440837144851685,0.9173277616500854,1.624602198600769,-3.7094643115997314
1764808571.998984,-0.19678513938188552,3.079587478083372,-1.205880933383107,1.8981072902679443,0.50341796875,3.6067957878112793,,,,,,
1764808571.999727,,,,,,,0.4482095241546631,0.12371569871902466,0.2938525378704071,0.9571247100830078,1.6483629941940308,-3.688946485519409
1764808572.009036,-0.34434476782381535,3.1007372336179015,-1.1971370704352855,1.8996808528900146,0.5351876616477966,3.575960397720337,,,,,,
1764808572.009757,,,,,,,0.4527345299720764,0.11777204275131226,0.2952329218387604,0.908597469329834,1.6587297916412354,-3.6701407432556152
1764808572.019089,-0.42577626584172246,2.9508699127554894,-1.1484218471050263,1.9003421068191528,0.5338206887245178,3.5393247604370117,,,,,,
1764808572.019787,,,,,,,0.4570883512496948,0.08648890256881714,0.28239378333091736,0.883263349533081,1.6600850820541382,-3.6080546379089355
1764808572.029141,-0.4952092830300331,2.7818641761809584,-0.9746762225270271,1.8907532691955566,0.5160609483718872,3.4881489276885986,,,,,,
1764808572.029817,,,,,,,0.4545990824699402,0.03205764293670654,0.27082931995391846,0.8621021509170532,1.662543773651123,-3.542478084564209
1764808572.039193,-0.5607359404295682,2.7332085740834473,-0.7867208708107472,1.8710286617279053,0.4894956350326538,3.422146797180176,,,,,,
1764808572.039847,,,,,,,0.44386404752731323,0.012743175029754639,0.26815101504325867,0.8084096312522888,1.695644497871399,-3.502326488494873
1764808572.049245,-0.5572404995292425,2.7615619773864744,-0.7502992387991398,1.8535232543945312,0.46937817335128784,3.343658447265625,,,,,,
1764808572.049877,,,,,,,0.4383864998817444,0.017239511013031006,0.25656113028526306,0.7727299332618713,1.7187079191207886,-3.4569056034088135
1764808572.059297,-0.5189332729667425,2.752920405769348,-0.6979062768042087,1.833974838256836,0.44556924700737,3.2819738388061523,,,,,,
1764808572.059907,,,,,,,0.44419634342193604,0.023551583290100098,0.22848951816558838,0.7566558718681335,1.6980223655700684,-3.389310598373413
1764808572.06935,-0.5271481436043978,2.5817379096776247,-0.7217733284734189,1.8069661855697632,0.42126351594924927,3.237502098083496,,,,,,
1764808572.069937,,,,,,,0.44376564025878906,0.018622279167175293,0.2089042067527771,0.7927717566490173,1.6568224430084229,-3.287043809890747
1764808572.079402,-0.6135661978632211,2.3001076644420624,-0.8562170163631438,1.7871124744415283,0.4054776132106781,3.1746859550476074,,,,,,
1764808572.079967,,,,,,,0.4248387813568115,-0.01053708791732788,0.20434167981147766,0.824914813041687,1.6088166236877441,-3.2261664867401123
1764808572.089454,-0.6172615452498197,2.1756816588282586,-0.929226138472557,1.757181167602539,0.3939969539642334,3.0910816192626953,,,,,,
1764808572.089997,,,,,,,0.38557082414627075,-0.014986097812652588,0.2270880937576294,0.7854991555213928,1.6065784692764282,-3.182274103164673
1764808572.099506,-0.5431961920857429,2.2533248704791067,-0.9872526493750512,1.7239116430282593,0.38811084628105164,3.0064237117767334,,,,,,
1764808572.100028,,,,,,,0.35763394832611084,0.004343599081039429,0.2246183156967163,0.7910894155502319,1.6203289031982422,-3.0961639881134033
1764808572.109558,-0.41713118709325786,2.411875848534703,-0.9330443815864622,1.6826252937316895,0.3832824230194092,2.9460442066192627,,,,,,
1764808572.110057,,,,,,,0.35350191593170166,0.005181401968002319,0.20524007081985474,0.8348190784454346,1.603907585144043,-3.0031447410583496
1764808572.11961,-0.38772213725745674,2.3486405169427393,-0.8850583493135868,1.6521315574645996,0.36359021067619324,2.888245105743408,,,,,,
1764808572.120088,,,,,,,0.35765331983566284,-0.013071924448013306,0.19418948888778687,0.846519947052002,1.5527442693710327,-2.909557580947876
1764808572.129663,-0.505067829221487,2.1301900737196204,-0.8847069055274128,1.634102702140808,0.3111531138420105,2.814866304397583,,,,,,
1764808572.130118,,,,,,,0.35134363174438477,-0.04068520665168762,0.2021879255771637,0.8108395338058472,1.5078383684158325,-2.8198349475860596
1764808572.139715,-0.6109785194575786,2.043791308683157,-0.9463549679279327,1.6101171970367432,0.24869000911712646,2.728728771209717,,,,,,
1764808572.140148,,,,,,,0.33555954694747925,-0.060254842042922974,0.21848958730697632,0.6874696612358093,1.4735416173934937,-2.766819953918457
1764808572.149767,-0.5867541787832975,2.1371137355029584,-0.9938462024211883,1.592632532119751,0.1862042248249054,2.639223098754883,,,,,,
1764808572.150178,,,,,,,0.3204500079154968,-0.04259636998176575,0.227372944355011,0.563557505607605,1.4719990491867065,-2.692868709564209
1764808572.159819,-0.5467769731819629,2.317012037491798,-0.9717235102012753,1.583677053451538,0.15912014245986938,2.564318895339966,,,,,,
1764808572.160208,,,,,,,0.3165271282196045,-0.048134803771972656,0.21932291984558105,0.557141125202179,1.4751147031784058,-2.595989942550659
1764808572.169871,-0.5227794270008802,2.4039970779836177,-0.8404793490052223,1.5680482387542725,0.15938392281532288,2.4976022243499756,,,,,,
1764808572.170238,,,,,,,0.31356728076934814,-0.052985936403274536,0.22615861892700195,0.45605412125587463,1.4717223644256592,-2.582171678543091
1764808572.179924,-0.3994833021998405,2.4608184508800504,-0.7328910809457302,1.5677754878997803,0.14567236602306366,2.4460513591766357,,,,,,
1764808572.180268,,,,,,,0.31594932079315186,0.011973857879638672,0.21210426092147827,0.4399707615375519,1.4672701358795166,-2.513852119445801
1764808572.189976,-0.3451441015079617,2.2814438805043697,-0.6540393702879548,1.5604617595672607,0.15026026964187622,2.4211819171905518,,,,,,
1764808572.190298,,,,,,,0.32368040084838867,0.04522186517715454,0.16064304113388062,0.6138358116149902,1.390060544013977,-2.4028127193450928
1764808572.200028,-0.4285214728966355,1.986199535936117,-0.4054153225973248,1.5237751007080078,0.15730193257331848,2.392130136489868,,,,,,
1764808572.200328,,,,,,,0.3007662892341614,0.03977535665035248,0.1235927939414978,0.7510642409324646,1.363079309463501,-2.3512375354766846
1764808572.21008,-0.5783367713108658,1.8494751897633075,-0.2404915946394205,1.491835117340088,0.14140023291110992,2.3365747928619385,,,,,,
1764808572.210358,,,,,,,0.27045387029647827,0.00992313027381897,0.13023245334625244,0.796016275882721,1.3876866102218628,-2.3072612285614014
1764808572.220132,-0.7538461906909942,1.7639760039150714,-0.2767024334445596,1.4868673086166382,0.13221710920333862,2.244499683380127,,,,,,
1764808572.220389,,,,,,,0.2640104293823242,-0.05895794928073883,0.13899153470993042,0.7905389070510864,1.369221806526184,-2.2358293533325195
1764808572.230185,-0.9464616431728005,1.6776918051689862,-0.1878933923959732,1.4811002016067505,0.12811414897441864,2.1312944889068604,,,,,,
1764808572.230419,,,,,,,0.26265472173690796,-0.12059253454208374,0.13030219078063965,0.737066388130188,1.3642246723175049,-2.15608811378479
1764808572.240237,-0.923869872136414,1.5572177520513533,-0.2023673234283924,1.479935646057129,0.11872278153896332,2.0128297805786133,,,,,,
1764808572.240449,,,,,,,0.2580397129058838,-0.11641132831573486,0.1349276304244995,0.6029555797576904,1.3473045825958252,-2.117666482925415
1764808572.250289,-0.6389207116112112,1.4578309106260536,-0.18461890076994894,1.471055507659912,0.1091839000582695,1.930380940437317,,,,,,
1764808572.250479,,,,,,,0.24801385402679443,-0.05054435133934021,0.10576462745666504,0.6236988306045532,1.3149019479751587,-2.0273356437683105
1764808572.260341,-0.29692630630582567,1.2594593788355588,-0.18141484403163194,1.4180480241775513,0.13969440758228302,1.8896195888519287,,,,,,
1764808572.260508,,,,,,,0.2351049780845642,0.014273054897785187,0.05239379405975342,0.8897252082824707,1.3079707622528076,-1.824488878250122
1764808572.270393,-0.09613748424053191,1.1371604483783244,-0.044760640485584736,1.3238993883132935,0.1912563294172287,1.8792775869369507,,,,,,
1764808572.270539,,,,,,,0.21316170692443848,0.0710584968328476,0.02176952362060547,1.1987930536270142,1.2767270803451538,-1.658762812614441
1764808572.280445,-0.18692980806082485,1.0333546214669942,0.03269873903095722,1.2177774906158447,0.26771676540374756,1.8391907215118408,,,,,,
1764808572.280569,,,,,,,0.20344674587249756,0.10417085886001587,0.009942471981048584,1.5687016248703003,1.1987414360046387,-1.474202275276184
1764808572.290498,-0.5685977598458528,1.0567547862768172,0.2481692896604538,1.120750904083252,0.30986034870147705,1.7620227336883545,,,,,,
1764808572.290599,,,,,,,0.2200731635093689,0.008684840053319931,-0.00041228532791137695,1.8284962177276611,1.0759776830673218,-1.2709635496139526
1764808572.30055,-1.1892203059613704,1.1268600036382674,0.4438189952716231,1.0458987951278687,0.2810521423816681,1.6347204446792603,,,,,,
1764808572.300629,,,,,,,0.2421225905418396,-0.1636684387922287,0.007703959941864014,1.8118102550506592,0.9473724365234375,-1.1445566415786743
1764808572.310602,-1.8395592142961918,1.209536533281207,0.809921713656187,0.9842939972877502,0.20654334127902985,1.4580307006835938,,,,,,
1764808572.310659,,,,,,,0.25165677070617676,-0.3431014120578766,0.017082273960113525,1.6016721725463867,0.8726270794868469,-1.126027226448059
1764808572.320654,-2.2996835938110944,1.3768342968940734,1.1198115464314817,0.9126659035682678,0.13080863654613495,1.2428590059280396,,,,,,
1764808572.320689,,,,,,,0.25160694122314453,-0.4423263669013977,0.014119625091552734,1.0668106079101562,0.8486394286155701,-1.1832910776138306
1764808572.330706,-2.231470619937032,1.6189076077669857,0.9226976134866476,0.8669025897979736,0.08343565464019775,1.0272728204727173,,,,,,
1764808572.330719,,,,,,,0.2704421281814575,-0.4040601849555969,0.01831960678100586,0.4986349940299988,0.7996849417686462,-1.175140619277954
1764808572.34075,,,,,,,0.2920617461204529,-0.324239045381546,-0.005086541175842285,0.2428402304649353,0.6560516357421875,-1.0512285232543945
1764808572.340759,-1.7806297632046042,1.586898020043969,0.43070904606878757,0.8399500846862793,0.10774418711662292,0.8814350962638855,,,,,,
1764808572.35078,,,,,,,0.26723021268844604,-0.24336862564086914,-0.024664580821990967,0.14993220567703247,0.5480052828788757,-0.9251723885536194
1764808572.350811,-1.155373712069541,1.3989099351018666,0.34136253714263437,0.7744096517562866,0.1564885675907135,0.7918423414230347,,,,,,
1764808572.36081,,,,,,,0.21949905157089233,-0.17386241257190704,-0.014378249645233154,0.15741756558418274,0.551859438419342,-0.7852293848991394
1764808572.360863,-0.5667955327294767,1.488328924742341,0.4126595946371555,0.675308108329773,0.163643941283226,0.721737802028656,,,,,,
1764808572.37084,,,,,,,0.20710361003875732,-0.15887534618377686,-3.17692756652832e-05,0.2288758009672165,0.5575695037841797,-0.6634475588798523
1764808572.370915,-0.3187446087516844,1.8445669594556091,0.33936756393313405,0.5684928297996521,0.1622328758239746,0.6491137742996216,,,,,,
1764808572.38087,,,,,,,0.23391956090927124,-0.14991678297519684,0.0017892122268676758,0.277421236038208,0.5360804796218872,-0.5692688822746277
1764808572.380967,-0.5060406197763979,2.3022879310905933,0.42198505686521526,0.46122682094573975,0.14776338636875153,0.5667371153831482,,,,,,
1764808572.3909,,,,,,,0.2965090870857239,-0.12792493402957916,0.012004435062408447,0.2539404034614563,0.4738336205482483,-0.4671899378299713
1764808572.39102,-0.7366879890106618,2.650328046301007,0.3157762604653835,0.3709024488925934,0.10533100366592407,0.46526291966438293,,,,,,
1764808572.40093,,,,,,,0.36255866289138794,-0.11929598450660706,0.023055613040924072,0.2547782361507416,0.30995306372642517,-0.34338223934173584
1764808572.401072,-0.8592574069723486,2.6646540932953355,-0.019741057780385016,0.3320240080356598,0.06176994740962982,0.35839933156967163,,,,,,
1764808572.41096,,,,,,,0.37233275175094604,-0.132485032081604,0.03027927875518799,0.23213452100753784,0.14534467458724976,-0.2338690608739853
1764808572.411124,-0.9502912844635546,2.4572177960395813,-0.08772153807282447,0.28774821758270264,0.06504752486944199,0.25381603837013245,,,,,,
1764808572.42099,,,,,,,0.3194025754928589,-0.14850403368473053,0.044943809509277344,0.16056206822395325,0.11973730474710464,-0.12487706542015076
1764808572.421176,-0.933532311233878,2.329396302768588,-0.01916530371904373,0.20697692036628723,0.085013248026371,0.15066248178482056,,,,,,
1764808572.43102,,,,,,,0.2740711569786072,-0.1741766333580017,0.055206358432769775,0.0754748061299324,0.14110597968101501,-0.026730258017778397
1764808572.431228,-0.881698371361196,2.3953905776798723,0.026940613895654678,0.11956958472728729,0.095819391310215,0.04629218205809593,,,,,,
1764808572.44105,,,,,,,0.27022361755371094,-0.1852780282497406,0.04507088661193848,0.01389453187584877,0.1485484540462494,0.06526251137256622
1764808572.44128,-0.8502962480120361,2.7207611804425715,0.25864918262064457,0.024145595729351044,0.09490485489368439,-0.05240190401673317,,,,,,
1764808572.45108,,,,,,,0.3169211149215698,-0.16319125890731812,0.0248873233795166,-0.009206636808812618,0.10895469784736633,0.18137226998806
1764808572.451961,-0.8509230016082525,3.172311354488134,0.4226017274588346,-0.07056019455194473,0.11021620780229568,-0.13986483216285706,,,,,,
1764808572.461111,,,,,,,0.3882367014884949,-0.1350911557674408,0.0077762603759765625,0.06677574664354324,0.004504993092268705,0.3101459741592407
1764808572.462013,-0.8596106043241918,3.174620800474286,0.4294868107974529,-0.13370534777641296,0.1416151374578476,-0.20560097694396973,,,,,,
1764808572.471141,,,,,,,0.4241650104522705,-0.13364717364311218,-0.00257951021194458,0.13475321233272552,-0.12651507556438446,0.44537556171417236
1764808572.472065,-0.910524799003452,3.2824487225085495,0.3980605759203434,-0.2080264389514923,0.17920193076133728,-0.3083326816558838,,,,,,
1764808572.481171,,,,,,,0.4100801944732666,-0.13780942559242249,0.008784890174865723,0.1480136215686798,-0.21992917358875275,0.5897228717803955
1764808572.482117,-1.0285106885671615,3.0147751064330337,0.3526183829113841,-0.27674850821495056,0.18490220606327057,-0.4291614592075348,,,,,,
1764808572.491201,,,,,,,0.37248218059539795,-0.15481773018836975,0.02682793140411377,0.1225900799036026,-0.2720363140106201,0.7410779595375061
1764808572.492169,-1.0762605739966034,2.755598100546002,0.3483303303286433,-0.34950071573257446,0.16624480485916138,-0.5646329522132874,,,,,,
1764808572.50123,,,,,,,0.341469943523407,-0.18881186842918396,0.03556638956069946,0.08055981248617172,-0.31369641423225403,0.9004242420196533
1764808572.502222,-1.076584106862545,2.6142612921416757,0.31023470069020986,-0.424407958984375,0.12436101585626602,-0.7008299231529236,,,,,,
1764808572.511261,,,,,,,0.329321026802063,-0.2339644879102707,0.043093740940093994,0.023833652958273888,-0.36586055159568787,1.0495766401290894
1764808572.512274,-1.062525478632748,2.5368624106407163,0.19881986007988453,-0.495402067899704,0.08205166459083557,-0.8325267434120178,,,,,,
1764808572.521291,,,,,,,0.3237321972846985,-0.2631211280822754,0.0565640926361084,-0.050495173782110214,-0.4118597209453583,1.2060611248016357
1764808572.522326,-1.0985029470734298,2.460665890666842,0.05843523783385753,-0.5564582347869873,0.06668682396411896,-0.9639511108398438,,,,,,
1764808572.531321,,,,,,,0.3147643804550171,-0.27959004044532776,0.06516420841217041,-0.10471302270889282,-0.4461236894130707,1.3639944791793823
1764808572.532378,-1.2289563962832093,2.363021508994698,-0.01414426068663597,-0.6113111972808838,0.06320644170045853,-1.0983110666275024,,,,,,
1764808572.541351,,,,,,,0.3079162836074829,-0.28497427701950073,0.0714910626411438,-0.18239609897136688,-0.4677024781703949,1.5281530618667603
1764808572.54243,-1.3904698774062096,2.267211357012391,0.0690352500423789,-0.6803224086761475,0.058023396879434586,-1.2492728233337402,,,,,,
1764808572.551381,,,,,,,0.3162733316421509,-0.2853328287601471,0.07040596008300781,-0.2417646050453186,-0.47935327887535095,1.6889019012451172
1764808572.552482,-1.604571039378643,2.2813024262070654,0.21390227839946746,-0.7574467658996582,0.030337173491716385,-1.4199883937835693,,,,,,
1764808572.561411,,,,,,,0.34408503770828247,-0.297885924577713,0.055945634841918945,-0.2706276774406433,-0.502018928527832,1.8498040437698364
1764808572.562535,-1.8084359078884125,2.3997446812361476,0.3129623720884323,-0.8376041650772095,-0.003859412157908082,-1.607108235359192,,,,,,
1764808572.571441,,,,,,,0.3823593258857727,-0.3072004020214081,0.0581662654876709,-0.30629846453666687,-0.5478993058204651,2.016286611557007
1764808572.572587,-1.9551681455954908,2.559863931521773,0.3589508008033037,-0.9177877902984619,-0.036751218140125275,-1.7971504926681519,,,,,,
1764808572.581472,,,,,,,0.42086225748062134,-0.3123053312301636,0.08692061901092529,-0.335650235414505,-0.6433981657028198,2.1812222003936768
1764808572.582639,-2.03918849106282,2.726144627046585,0.2294748183235526,-0.9833154082298279,-0.0590360164642334,-1.9764621257781982,,,,,,
1764808572.591502,,,,,,,0.4309307336807251,-0.31848785281181335,0.1083076000213623,-0.3801010847091675,-0.7348518967628479,2.346846342086792
1764808572.592691,-2.082211932492256,2.7176971166968342,-0.038216333408653734,-1.040690541267395,-0.07101757824420929,-2.156928539276123,,,,,,
1764808572.601532,,,,,,,0.41329652070999146,-0.31335192918777466,0.130149245262146,-0.4149509370326996,-0.7634771466255188,2.5373904705047607
1764808572.602743,-2.1528239303320644,2.6288836917340754,-0.17081658538877964,-1.1086136102676392,-0.07917559146881104,-2.3478729724884033,,,,,,
1764808572.611562,,,,,,,0.40345001220703125,-0.2966614365577698,0.15391099452972412,-0.4615457355976105,-0.7431782484054565,2.715928316116333
1764808572.612796,-2.2244641021758316,2.633977800002694,-0.24116847098767755,-1.1865565776824951,-0.09544828534126282,-2.555969476699829,,,,,,
1764808572.621592,,,,,,,0.4215853214263916,-0.26912280917167664,0.17980647087097168,-0.5394477248191833,-0.7266157865524292,2.866858959197998
1764808572.622848,-2.2713170387655497,2.811560226264596,-0.25605682803988455,-1.2558430433273315,-0.12562057375907898,-2.7720539569854736,,,,,,
1764808572.631622,,,,,,,0.4606342911720276,-0.25020164251327515,0.21279078722000122,-0.5829792618751526,-0.8201135396957397,3.0179381370544434
1764808572.6329,-2.206895419998467,3.0731361099869012,-0.41038931161761283,-1.2637264728546143,-0.14294525980949402,-2.959073781967163,,,,,,
1764808572.641652,,,,,,,0.4640991687774658,-0.24173983931541443,0.2141159176826477,-0.6181747913360596,-0.9030739068984985,3.177452802658081
1764808572.642952,-1.9994757816165685,3.062323039549589,-0.7507575770258903,-1.253035545349121,-0.1448744535446167,-3.109541654586792,,,,,,
1764808572.651681,,,,,,,0.4252961277961731,-0.22383242845535278,0.22866004705429077,-0.6096436977386475,-0.8546547293663025,3.3372559547424316
1764808572.653004,-1.774694966328144,3.002377981674671,-0.7525824543654919,-1.2622243165969849,-0.14306031167507172,-3.2216806411743164,,,,,,
1764808572.661712,,,,,,,0.3905255198478699,-0.2031049132347107,0.2352953553199768,-0.5583264827728271,-0.7647171020507812,3.4682350158691406
1764808572.663056,-1.6206450990840793,3.0037966163009404,-0.6594964666500687,-1.2909150123596191,-0.13633422553539276,-3.321314573287964,,,,,,
1764808572.671742,,,,,,,0.3855377435684204,-0.18515679240226746,0.21385717391967773,-0.4851847290992737,-0.6614445447921753,3.582228660583496
1764808572.673109,-1.5942247096702455,2.989205780890584,-0.5657774417281151,-1.3297569751739502,-0.13870398700237274,-3.426992416381836,,,,,,
1764808572.681772,,,,,,,0.4239603281021118,-0.17962613701820374,0.21161645650863647,-0.4738048017024994,-0.5872456431388855,3.654644012451172
1764808572.683161,-1.7168436658620834,3.068016867277026,-0.3512590772569179,-1.370711088180542,-0.16514703631401062,-3.548196792602539,,,,,,
1764808572.691802,,,,,,,0.48702001571655273,-0.15747418999671936,0.22406166791915894,-0.5860757827758789,-0.586531937122345,3.718006134033203
1764808572.693213,-1.8976187506854534,3.216652015995979,-0.227344236035645,-1.389501690864563,-0.2128525674343109,-3.684131145477295,,,,,,
1764808572.701833,,,,,,,0.5314728617668152,-0.12280356884002686,0.2250794768333435,-0.6505799889564514,-0.6417208909988403,3.8392937183380127
1764808572.703265,-1.949632431039214,3.300225202217698,-0.3294628405123949,-1.3927839994430542,-0.2424786388874054,-3.8147165775299072,,,,,,
1764808572.711863,,,,,,,0.5426344871520996,-0.09672874212265015,0.2338305115699768,-0.6389056444168091,-0.6557120680809021,3.9584052562713623
1764808572.713317,-1.8291963718444109,3.4066952799022197,-0.47215807778835295,-1.4150725603103638,-0.23939736187458038,-3.920687437057495,,,,,,
1764808572.721893,,,,,,,0.5285817384719849,-0.0632585883140564,0.2411503791809082,-0.6383759379386902,-0.6414353847503662,4.033107757568359
1764808572.72337,-1.6041519371837376,3.599763444587588,-0.5568450704708695,-1.4429564476013184,-0.2009064257144928,-3.9843363761901855,,,,,,
1764808572.731923,,,,,,,0.5084580779075623,-0.05733296275138855,0.24783450365066528,-0.6310580372810364,-0.6758804321289062,4.107577323913574
1764808572.733422,-1.3192980537265537,3.7185879769325254,-0.8103846549928188,-1.453547716140747,-0.15494310855865479,-4.0195231437683105,,,,,,
1764808572.741953,,,,,,,0.4703174829483032,-0.09336307644844055,0.24038952589035034,-0.7031673789024353,-0.6749462485313416,4.224547386169434
1764808572.743474,-1.0638666641086338,3.5255642359107733,-1.1690095848426223,-1.443930983543396,-0.11244998127222061,-4.062938213348389,,,,,,
1764808572.751983,,,,,,,0.4221879243850708,-0.14188873767852783,0.2674429416656494,-0.7823966145515442,-0.6220971345901489,4.342752456665039
1764808572.753526,-0.9739075762420892,3.099218645748496,-1.303085462333262,-1.4201881885528564,-0.09714040160179138,-4.130301475524902,,,,,,
1764808572.762013,,,,,,,0.37452149391174316,-0.15779155492782593,0.2762868404388428,-0.8890141248703003,-0.5778566598892212,4.407998085021973
1764808572.763578,-0.9535895953565835,2.506388946443796,-1.351357033549249,-1.404837727546692,-0.10116124153137207,-4.238508701324463,,,,,,
1764808572.772043,,,,,,,0.33878666162490845,-0.08682811260223389,0.28499680757522583,-0.9559661746025085,-0.4425761103630066,4.4493560791015625
1764808572.773631,-0.9300023835420608,1.9045839135229587,-1.3273968967691063,-1.4340660572052002,-0.12899594008922577,-4.367186546325684,,,,,,
1764808572.782073,,,,,,,0.35904908180236816,0.0244942307472229,0.30068862438201904,-0.8379284739494324,-0.28613588213920593,4.496556282043457
1764808572.783683,-0.8350280978620052,1.7126736867010592,-1.0999535842731594,-1.4963669776916504,-0.15410448610782623,-4.472653388977051,,,,,,
1764808572.792103,,,,,,,0.43375837802886963,0.11059325933456421,0.27474433183670044,-0.6135410666465759,-0.21027414500713348,4.552895545959473
1764808572.793735,-0.6070867727160454,2.070294700205326,-0.9323955622889101,-1.5785701274871826,-0.10118028521537781,-4.4762187004089355,,,,,,
1764808572.802132,,,,,,,0.5224032998085022,0.12076258659362793,0.2656862735748291,-0.4587605595588684,-0.21360203623771667,4.587429523468018
1764808572.803787,-0.4421265121400356,2.937772530773282,-0.849603443442285,-1.6182732582092285,-0.04297264292836189,-4.468791961669922,,,,,,
1764808572.812163,,,,,,,0.582172155380249,0.05951523780822754,0.2657979726791382,-0.46519988775253296,-0.218360036611557,4.624639987945557
1764808572.813839,-0.6218114636391401,3.660516019453108,-0.7276384211145341,-1.5784611701965332,-0.004971995484083891,-4.493591785430908,,,,,,
1764808572.822194,,,,,,,0.5984295010566711,0.002985537052154541,0.26037389039993286,-0.6931028366088867,-0.217911034822464,4.674784183502197
1764808572.823891,-0.8987976824611424,4.085123533776402,-0.7256488547325134,-1.4938548803329468,-0.011673041619360447,-4.548810005187988,,,,,,
1764808572.832224,,,,,,,0.5768596529960632,-0.0015527606010437012,0.27542179822921753,-0.9127286672592163,-0.29746684432029724,4.744675636291504
1764808572.833944,-1.0574158805340528,4.08602428200841,-0.929627120488882,-1.396981954574585,-0.02599169686436653,-4.626701831817627,,,,,,
1764808572.842254,,,,,,,0.5074975490570068,0.04361647367477417,0.26440274715423584,-1.005273461341858,-0.33976051211357117,4.80095100402832
1764808572.843996,-0.8818681749701499,3.4971500423312185,-1.4021731746815145,-1.3428995609283447,0.006065306253731251,-4.725423336029053,,,,,,
1764808572.852284,,,,,,,0.4138818085193634,0.11412477493286133,0.26317501068115234,-0.8506602048873901,-0.16704332828521729,4.808704853057861
1764808572.854048,-0.38925124652087684,2.7745567757770417,-1.6573991048552095,-1.3694931268692017,0.02766476199030876,-4.831287384033203,,,,,,
1764808572.862314,,,,,,,0.3690268397331238,0.1714308261871338,0.30190879106521606,-0.6273948550224304,0.11728932708501816,4.771147727966309
1764808572.8641,0.2913952679246664,2.4719185215651986,-1.485791661349684,-1.4419760704040527,0.008248187601566315,-4.916870594024658,,,,,,
1764808572.872344,,,,,,,0.41500192880630493,0.230604887008667,0.34524133801460266,-0.34625935554504395,0.351654976606369,4.788877487182617
1764808572.874152,0.9625152446120977,2.831684730404615,-1.2660334965288638,-1.4814884662628174,-0.05871601402759552,-4.9384331703186035,,,,,,
1764808572.882374,,,,,,,0.5125959515571594,0.24687999486923218,0.35966065526008606,0.07525646686553955,0.47123435139656067,4.848211765289307
1764808572.884205,1.2430237923413514,3.6617119512394067,-1.2293806130446492,-1.4371553659439087,-0.1624288260936737,-4.890009880065918,,,,,,
1764808572.892404,,,,,,,0.5903071165084839,0.2509700059890747,0.36785200238227844,0.43065035343170166,0.5603733062744141,4.839461803436279
1764808572.894257,0.9157681064844131,4.559531436318159,-1.2087491822957992,-1.3245736360549927,-0.2603152096271515,-4.806445121765137,,,,,,
1764808572.902434,,,,,,,0.6188465356826782,0.30237728357315063,0.3509726822376251,0.7100870609283447,0.6861658692359924,4.765564918518066
1764808572.904309,0.21920155385136603,5.246087467068434,-0.9784989956855773,-1.1860538721084595,-0.2975006699562073,-4.720027923583984,,,,,,
1764808572.912464,,,,,,,0.6246371269226074,0.33958059549331665,0.2778644561767578,0.9349498748779297,0.7551414370536804,4.6623334884643555
1764808572.914361,-0.4560129986733198,5.538235014665126,-0.679515902980417,-1.059583067893982,-0.2566954493522644,-4.659162998199463,,,,,,
1764808572.922494,,,,,,,0.6180630922317505,0.35452204942703247,0.19081568717956543,0.7742344737052917,0.740007221698761,4.528500080108643
1764808572.924413,-0.8278010692179203,5.41952037243545,-0.5170842840991914,-0.9950955510139465,-0.19926173985004425,-4.647401332855225,,,,,,
1764808572.932524,,,,,,,0.6026504635810852,0.32516616582870483,0.10750901699066162,0.3348703980445862,0.7741284370422363,4.389730930328369
1764808572.934466,-0.6869453223288059,5.007204476669431,-0.3412134840607643,-1.0538283586502075,-0.2303173691034317,-4.692905426025391,,,,,,
1764808572.942555,,,,,,,0.5797889828681946,0.20117086172103882,0.08189594745635986,-0.40127232670783997,0.9120181202888489,4.29495096206665
1764808572.944518,0.17062544673085211,4.516877997244894,-0.0803916335761547,-1.1788145303726196,-0.3561397194862366,-4.738123893737793,,,,,,
1764808572.952585,,,,,,,0.5857560038566589,0.08139193058013916,0.12090259790420532,-1.2505996227264404,1.0043644905090332,4.223926544189453
1764808572.95457,1.6910352708667515,4.2657875594407315,-0.13839841686487198,-1.2711868286132812,-0.6155009269714355,-4.711948871612549,,,,,,
1764808572.962615,,,,,,,0.6273758411407471,0.0029645562171936035,0.20312917232513428,-2.0508408546447754,0.9480027556419373,4.161445140838623
1764808572.964622,3.2791865058422087,4.408207779167593,-0.41227037612386047,-1.268807053565979,-1.0136163234710693,-4.621790409088135,,,,,,
1764808572.972645,,,,,,,0.665482759475708,-0.0036280155181884766,0.28088271617889404,-2.6649563312530518,0.7805245518684387,3.9897360801696777
1764808572.974674,4.217516572746634,4.640278459203243,-0.6007236674249172,-1.2003931999206543,-1.552925944328308,-4.526017189025879,,,,,,
1764808572.982675,,,,,,,0.6767852902412415,0.13573956489562988,0.3097596764564514,-3.1451327800750732,0.5902944207191467,3.784653902053833
1764808572.984727,4.262160601115227,4.7043774218872185,-0.5991935352481901,-1.118912935256958,-2.1087121963500977,-4.410350799560547,,,,,,
1764808572.992705,,,,,,,0.6885960102081299,0.36687660217285156,0.3215373754501343,-3.3185648918151855,0.37512433528900146,3.7192025184631348
1764808572.994779,3.781778300338983,4.781425590254366,-0.7589853802103549,-1.0561749935150146,-2.5059938430786133,-4.224923133850098,,,,,,
1764808573.002735,,,,,,,0.6827911734580994,0.5289071202278137,0.31804314255714417,-3.17612361907959,0.11978684365749359,3.665764808654785
1764808573.004831,3.0989795762956143,4.794907587639988,-1.19301860226579,-1.0282549858093262,-2.6118650436401367,-3.99586820602417,,,,,,
1764808573.012765,,,,,,,0.6385430097579956,0.6345616579055786,0.30336692929267883,-2.865490436553955,-0.020453354343771935,3.553187370300293
1764808573.014883,2.341037056201696,4.738892854951322,-1.6478852804481983,-1.0358837842941284,-2.3978633880615234,-3.757854461669922,,,,,,
1764808573.022794,,,,,,,0.5866334438323975,0.6965449452400208,0.2650158107280731,-2.5334784984588623,-0.107719287276268,3.5167486667633057
1764808573.024935,1.5941040059000253,4.736655012896657,-1.98906603128314,-1.0679243803024292,-1.9442071914672852,-3.563809633255005,,,,,,
1764808573.032824,,,,,,,0.5441842675209045,0.6728969216346741,0.2049463987350464,-2.187220573425293,-0.2265005260705948,3.480377674102783
1764808573.034987,0.8074445098876952,4.5620384507030245,-2.1022914284467697,-1.1431636810302734,-1.39256751537323,-3.4547016620635986,,,,,,
1764808573.042854,,,,,,,0.5010054111480713,0.6053298711776733,0.13043123483657837,-1.8493127822875977,-0.26115596294403076,3.4777135848999023
1764808573.045039,0.17438918317854404,4.0247666802302,-1.9859949532747267,-1.270444631576538,-0.8722665309906006,-3.448103427886963,,,,,,
1764808573.052884,,,,,,,0.46478497982025146,0.5548438429832458,0.08924242854118347,-1.4247511625289917,-0.18753181397914886,3.547762393951416
1764808573.055091,0.03508943355977535,3.318250103729963,-1.817196721971035,-1.4240666627883911,-0.4830540418624878,-3.51216721534729,,,,,,
1764808573.062913,,,,,,,0.4297356903553009,0.5217581987380981,0.0815054178237915,-0.935032844543457,-0.11299740523099899,3.668656826019287
1764808573.065143,0.45772623233199117,2.75731834846735,-1.649351261347532,-1.5669548511505127,-0.251229852437973,-3.6155223846435547,,,,,,
1764808573.072945,,,,,,,0.39646703004837036,0.49937891960144043,0.0884147584438324,-0.4751482605934143,-0.023397745564579964,3.773817539215088
1764808573.075195,1.2714648739278316,2.5639941631942986,-1.5367477954745292,-1.6771808862686157,-0.1806633025407791,-3.7275028228759766,,,,,,
1764808573.082974,,,,,,,0.3756384253501892,0.4725942611694336,0.11650142073631287,-0.08124810457229614,0.09487350285053253,3.879002332687378
1764808573.085248,2.250265482908487,2.7693431327819824,-1.4934171877920626,-1.7322006225585938,-0.259154736995697,-3.8204267024993896,,,,,,
1764808573.093004,,,,,,,0.37483954429626465,0.42536360025405884,0.14259955286979675,0.22172664105892181,0.2258581519126892,3.9802889823913574
1764808573.0953,3.0596921065241096,3.1666023291915653,-1.6032359913825989,-1.7423750162124634,-0.4572356045246124,-3.883375406265259,,,,,,
1764808573.103035,,,,,,,0.3888353705406189,0.39123547077178955,0.16458898782730103,0.38591131567955017,0.3588559031486511,4.062209606170654
1764808573.105352,3.5625036812514064,3.5827351528972384,-1.6782956162810325,-1.7218331098556519,-0.7234088182449341,-3.9210116863250732,,,,,,
1764808573.113065,,,,,,,0.4176221489906311,0.3797208070755005,0.20369035005569458,0.366972416639328,0.475130558013916,4.125011444091797
1764808573.115404,3.785758894407749,3.8815205310732126,-1.675183621740341,-1.6752815246582031,-0.9930704236030579,-3.936061143875122,,,,,,
1764808573.123095,,,,,,,0.45396512746810913,0.3752114176750183,0.23938217759132385,0.11691785603761673,0.5412384867668152,4.1657562255859375
1764808573.125456,3.765173202496767,4.084021125492454,-1.7059259660065174,-1.6199114322662354,-1.2157740592956543,-3.9342916011810303,,,,,,
1764808573.133125,,,,,,,0.4924839735031128,0.34285664558410645,0.2471875250339508,-0.2724599540233612,0.5729863047599792,4.16094446182251
1764808573.135509,3.5060336060106754,4.209588117834925,-1.5817185715794562,-1.5761823654174805,-1.3952242136001587,-3.926605463027954,,,,,,
1764808573.143155,,,,,,,0.5130986571311951,0.29152119159698486,0.24569743871688843,-0.7373759150505066,0.5999161601066589,4.109675884246826
1764808573.145561,3.108347708621621,4.104623768538237,-1.4129682710707188,-1.5472208261489868,-1.5311450958251953,-3.924778699874878,,,,,,
1764808573.153185,,,,,,,0.5036360621452332,0.2681311368942261,0.24117490649223328,-1.1955468654632568,0.6317129731178284,4.049281597137451
1764808573.155613,2.627884743824601,3.7619992486357687,-1.3770014701545237,-1.5429320335388184,-1.6236525774002075,-3.92336368560791,,,,,,
1764808573.163214,,,,,,,0.4797908663749695,0.28496891260147095,0.23896747827529907,-1.587260127067566,0.6458322405815125,4.003357410430908
1764808573.165665,2.1919313673615455,3.3412147997319694,-1.3709787027336657,-1.570626974105835,-1.6836048364639282,-3.925961971282959,,,,,,
1764808573.173244,,,,,,,0.4645220637321472,0.3167154788970947,0.22615104913711548,-1.8765417337417603,0.6577948927879333,3.9949862957000732
1764808573.175717,1.8526777851969003,3.0347850442826747,-1.3241045772254467,-1.6332886219024658,-1.7184123992919922,-3.935959577560425,,,,,,
1764808573.183275,,,,,,,0.4672849774360657,0.3313834071159363,0.21282196044921875,-2.0628767013549805,0.694572925567627,3.9625205993652344
1764808573.185771,1.6596441073030233,2.979593318414688,-1.3314951258681713,-1.69549560546875,-1.7341264486312866,-3.9502835273742676,,,,,,
1764808573.193305,,,,,,,0.4809643626213074,0.36030542850494385,0.207050159573555,-2.135002613067627,0.7326467633247375,3.908689260482788
1764808573.195822,1.6126850799903272,3.145830759319663,-1.4138789561748504,-1.7274068593978882,-1.7503578662872314,-3.9481022357940674,,,,,,
1764808573.203336,,,,,,,0.5084630250930786,0.4340161681175232,0.20155251026153564,-2.046152114868164,0.7399113774299622,3.911760091781616
1764808573.205874,1.7163973833993076,3.5772599363565445,-1.5515724396407604,-1.693039894104004,-1.7512582540512085,-3.904388189315796,,,,,,
1764808573.213366,,,,,,,0.533972442150116,0.5080175995826721,0.20281709730625153,-1.856846570968628,0.6311883330345154,3.8738832473754883
1764808573.215927,1.8854902137354015,4.072884229928255,-1.7318331452012061,-1.617431402206421,-1.722076654434204,-3.8075437545776367,,,,,,
1764808573.223396,,,,,,,0.5331927537918091,0.5253197550773621,0.1973082423210144,-1.710830807685852,0.566889226436615,3.8008627891540527
1764808573.225978,1.9997028683707117,4.3008793310880655,-1.7535539786219596,-1.5622823238372803,-1.6934609413146973,-3.685088634490967,,,,,,
1764808573.233426,,,,,,,0.5202641487121582,0.49858543276786804,0.21962778270244598,-1.6594613790512085,0.594228982925415,3.7340903282165527
1764808573.236031,1.898245650412142,4.407294463714957,-1.6460485665403306,-1.529445767402649,-1.6613168716430664,-3.583935260772705,,,,,,
1764808573.243456,,,,,,,0.5149393081665039,0.46678102016448975,0.2401135414838791,-1.724146842956543,0.6217144131660461,3.6379213333129883
1764808573.246083,1.5745727914780376,4.377615364766121,-1.6400012492001055,-1.5127360820770264,-1.6229897737503052,-3.528524398803711,,,,,,
1764808573.253486,,,,,,,0.5102785229682922,0.44752177596092224,0.24626511335372925,-1.8059436082839966,0.6590913534164429,3.53702449798584
1764808573.256135,1.2459472785726189,4.319512135365605,-1.6979425660371779,-1.4957818984985352,-1.5818469524383545,-3.516390323638916,,,,,,
1764808573.263515,,,,,,,0.5123855471611023,0.452507346868515,0.24997103214263916,-1.9045181274414062,0.6902367472648621,3.434260368347168
1764808573.266187,1.1040578047215939,4.346472623005509,-1.740312365863472,-1.4701639413833618,-1.5549359321594238,-3.505610227584839,,,,,,
1764808573.273546,,,,,,,0.5154226422309875,0.47763246297836304,0.2365623116493225,-1.9779683351516724,0.7086653113365173,3.3357961177825928
1764808573.276239,1.167283199441433,4.406314805027843,-1.7600037392832337,-1.4292397499084473,-1.5744236707687378,-3.4725182056427,,,,,,
1764808573.283576,,,,,,,0.5144841074943542,0.4893319308757782,0.24244582653045654,-2.025390863418579,0.7314110994338989,3.2617673873901367
1764808573.286292,1.324836252500862,4.485569543528556,-1.7454032592616975,-1.377586841583252,-1.610408067703247,-3.410358428955078,,,,,,
1764808573.293606,,,,,,,0.5060849785804749,0.48814070224761963,0.2627794146537781,-2.048828601837158,0.7246384024620056,3.178638219833374
1764808573.296344,1.4230090419612824,4.624812594524026,-1.8790579887308179,-1.3091363906860352,-1.611730933189392,-3.3321712017059326,,,,,,
1764808573.303636,,,,,,,0.49027901887893677,0.4738613963127136,0.2689688205718994,-2.0834238529205322,0.7297021150588989,3.080029010772705
1764808573.306396,1.4496239310339092,4.667243038496375,-2.052369605805725,-1.2145171165466309,-1.5749889612197876,-3.259523391723633,,,,,,
1764808573.313666,,,,,,,0.47291100025177,0.45102280378341675,0.2617015838623047,-2.1006600856781006,0.7187967300415039,2.985029935836792
1764808573.316448,1.434154266962409,4.550782897195219,-2.033082721533626,-1.116199254989624,-1.5252695083618164,-3.1931312084198,,,,,,
1764808573.323697,,,,,,,0.4381159543991089,0.4241710901260376,0.23525893688201904,-2.1220638751983643,0.7368761301040649,2.879577875137329
1764808573.3265,1.4268947973534465,4.198172989851236,-1.8222880537606774,-1.040718913078308,-1.4832358360290527,-3.124129056930542,,,,,,
1764808573.333727,,,,,,,0.3946521282196045,0.4374895989894867,0.19965046644210815,-2.1310431957244873,0.7801935076713562,2.784792423248291
1764808573.336553,1.3908466017641126,3.725526836284995,-1.5170460467912257,-1.0028799772262573,-1.429738998413086,-3.0637154579162598,,,,,,
1764808573.343756,,,,,,,0.36702942848205566,0.45121821761131287,0.1486365795135498,-2.1196553707122803,0.8123786449432373,2.702073812484741
1764808573.346605,1.260470747835189,3.2497219264268873,-1.3100745905682445,-0.991022527217865,-1.335541844367981,-3.00689959526062,,,,,,
1764808573.353786,,,,,,,0.3547210097312927,0.4583324193954468,0.10074293613433838,-2.044222116470337,0.8345800638198853,2.6498968601226807
1764808573.356658,1.1415270460899918,2.9530992792427537,-1.2809459651090205,-0.9821768999099731,-1.1899302005767822,-2.941781997680664,,,,,,
1764808573.363816,,,,,,,0.3452574610710144,0.4744172990322113,0.06689000129699707,-1.8656494617462158,0.8312602043151855,2.6108503341674805
1764808573.366709,1.0992077343419193,2.8250053987711667,-1.3834607292965053,-0.9697428345680237,-0.9756394624710083,-2.8668289184570312,,,,,,
1764808573.373847,,,,,,,0.32372474670410156,0.4977439045906067,0.03745102882385254,-1.623653531074524,0.836392343044281,2.576035261154175
1764808573.376762,1.0533897668231278,2.7675878135472534,-1.5878510829851031,-0.9533253908157349,-0.6942464113235474,-2.7870302200317383,,,,,,
1764808573.383877,,,,,,,0.29127538204193115,0.5074096918106079,0.016693830490112305,-1.4516818523406982,0.8143259286880493,2.513598918914795
1764808573.386814,1.1399741906248033,2.6517764915436506,-1.7519672939524054,-0.9332779049873352,-0.4029906392097473,-2.7126712799072266,,,,,,
1764808573.393907,,,,,,,0.24690884351730347,0.5021035075187683,0.018030520528554916,-1.2273457050323486,0.9047501087188721,2.478945016860962
1764808573.396866,1.3011796287119388,2.419907179298997,-1.7946233633741735,-0.9103105664253235,-0.1346089094877243,-2.6530025005340576,,,,,,
1764808573.403937,,,,,,,0.22140121459960938,0.5053404569625854,0.03457748517394066,-1.0556732416152954,0.9309611916542053,2.4674198627471924
1764808573.406918,1.552072790378332,2.4283581967800854,-1.842402182637155,-0.8559163212776184,0.057937901467084885,-2.6004154682159424,,,,,,
1764808573.413967,,,,,,,0.21334105730056763,0.49917975068092346,0.046083442866802216,-0.9875616431236267,0.9153258204460144,2.3871302604675293
1764808573.41697,1.8567299831971524,2.5486469564586876,-1.8623261957690118,-0.7872059941291809,0.1409822404384613,-2.568723440170288,,,,,,
1764808573.423996,,,,,,,0.20844411849975586,0.43110015988349915,0.08374298363924026,-1.056719422340393,0.9569949507713318,2.3179585933685303
1764808573.427023,2.1794695068039,2.751886971068382,-1.749933450037241,-0.6916504502296448,0.11448193341493607,-2.5550410747528076,,,,,,
1764808573.434026,,,,,,,0.21430176496505737,0.33925214409828186,0.11984372138977051,-1.219035267829895,0.9731616377830505,2.239124059677124
1764808573.437075,2.608613933904469,2.880723778861761,-1.6386425280675292,-0.5705860257148743,-0.002567288698628545,-2.573117256164551,,,,,,
1764808573.444057,,,,,,,0.19927304983139038,0.3101581335067749,0.10654114931821823,-1.305258870124817,1.0182228088378906,2.1871092319488525
1764808573.447127,2.9947715983241796,2.659638895481825,-1.4759718397334216,-0.4455391764640808,-0.15586283802986145,-2.5980823040008545,,,,,,
1764808573.454087,,,,,,,0.17346376180648804,0.3526638448238373,0.0574260875582695,-1.3349380493164062,1.0080910921096802,2.1518685817718506
1764808573.457179,3.37660263171643,2.252400156849623,-1.2922343979731201,-0.3421882092952728,-0.32948410511016846,-2.5978245735168457,,,,,,
1764808573.464118,,,,,,,0.1371985673904419,0.4189012050628662,-0.009341821074485779,-1.2973401546478271,1.0353612899780273,2.1288421154022217
1764808573.467232,3.697696872334182,1.5677490829378367,-1.066507241745293,-0.2927817702293396,-0.4921281337738037,-2.562161445617676,,,,,,
1764808573.474148,,,,,,,0.11386388540267944,0.4174656271934509,-0.05699039250612259,-1.2010239362716675,1.03603196144104,2.1446871757507324
1764808573.477284,3.864932676626742,0.9596715456187724,-0.8872957529768347,-0.2853738069534302,-0.5824629664421082,-2.505643606185913,,,,,,
1764808573.484178,,,,,,,0.09352874755859375,0.395854115486145,-0.12544144690036774,-1.1364811658859253,1.0434904098510742,2.1010704040527344
1764808573.487336,3.9568873222246763,0.4900830260574817,-0.8073565393432974,-0.3260605037212372,-0.6010145545005798,-2.4477710723876953,,,,,,
1764808573.494208,,,,,,,0.07768595218658447,0.4129590392112732,-0.2022477239370346,-1.0014957189559937,1.1193358898162842,2.0771663188934326
1764808573.497388,3.892019713255763,0.17535656690597534,-0.7005564990520476,-0.39333638548851013,-0.5536936521530151,-2.371778726577759,,,,,,
1764808573.504238,,,,,,,0.0960608720779419,0.45725104212760925,-0.23627544939517975,-0.7680129408836365,1.0693418979644775,2.105330467224121
1764808573.50744,3.8414100544810292,0.20330080488622188,-0.6176984753623604,-0.4471375644207001,-0.49221324920654297,-2.2545652389526367,,,,,,
1764808573.514267,,,,,,,0.11879456043243408,0.4911818504333496,-0.24591289460659027,-0.5496038794517517,0.8756684064865112,2.11049747467041
1764808573.517493,3.6863439959317446,0.32746903634667396,-0.7215060558393597,-0.48122015595436096,-0.40893620252609253,-2.1354119777679443,,,,,,
1764808573.524297,,,,,,,0.10199910402297974,0.4177158772945404,-0.24355055391788483,-0.49115946888923645,0.7233259677886963,2.0581729412078857
1764808573.527545,3.444615260712802,0.24432605823576448,-0.9225517752751707,-0.518616795539856,-0.335750937461853,-2.0504462718963623,,,,,,
1764808573.534328,,,,,,,0.04414469003677368,0.3306501805782318,-0.22026479244232178,-0.6233481764793396,0.7484662532806396,1.9864908456802368
1764808573.537597,3.3037747113928195,-0.09729483758211135,-0.8027230343237519,-0.554766833782196,-0.28980475664138794,-2.0190279483795166,,,,,,
1764808573.544358,,,,,,,-0.007522881031036377,0.3147188425064087,-0.1803886741399765,-0.6741708517074585,0.7668114304542542,2.0071709156036377
1764808573.547649,3.2461779702097178,-0.368995224955678,-0.6043047407820821,-0.5466178059577942,-0.2466064989566803,-2.016848087310791,,,,,,
1764808573.554388,,,,,,,-0.028566062450408936,0.31298184394836426,-0.20361590385437012,-0.674307644367218,0.7124541997909546,1.992038369178772
1764808573.557701,3.30859555567801,-0.5891711767971516,-0.5200248675957322,-0.5234612226486206,-0.2401963472366333,-2.0104880332946777,,,,,,
1764808573.564418,,,,,,,-0.04660499095916748,0.36090973019599915,-0.25413215160369873,-0.6549041271209717,0.6824110746383667,1.9190635681152344
1764808573.567755,3.4135137277454137,-0.8005991740375756,-0.2966097877025604,-0.5385051369667053,-0.27014490962028503,-1.9695334434509277,,,,,,
1764808573.574449,,,,,,,-0.04696774482727051,0.39937296509742737,-0.30484724044799805,-0.6339858174324036,0.6494688391685486,1.840162754058838
1764808573.577807,3.622710604932904,-0.9592734862118959,-0.019149229367077348,-0.5848876237869263,-0.30541953444480896,-1.8804858922958374,,,,,,
1764808573.584479,,,,,,,-0.036190927028656006,0.4217469394207001,-0.3311343193054199,-0.4943280518054962,0.6133486032485962,1.8176065683364868
1764808573.587858,3.8521620423808693,-0.9654787705928086,0.08653408185392618,-0.6166303753852844,-0.2996274530887604,-1.7468622922897339,,,,,,
1764808573.594509,,,,,,,-0.019379138946533203,0.4096585512161255,-0.3146132230758667,-0.2984662353992462,0.5073609352111816,1.767240285873413
1764808573.597911,3.994024043703079,-0.7327917122244835,-0.12502689411640167,-0.6142563223838806,-0.2391921877861023,-1.603991985321045,,,,,,
1764808573.604538,,,,,,,-0.021466314792633057,0.4308505952358246,-0.30474424362182617,-0.16320933401584625,0.4377610981464386,1.6520540714263916
1764808573.607963,3.913129136779904,-0.4510024770349264,-0.4491892901331186,-0.5861477255821228,-0.14642922580242157,-1.4793603420257568,,,,,,
1764808573.614568,,,,,,,-0.031030356884002686,0.45395106077194214,-0.3058803081512451,-0.07319322228431702,0.38429173827171326,1.564082145690918
1764808573.618015,3.6663930947929617,-0.284683787587285,-0.5317433624401688,-0.5602982640266418,-0.06640218943357468,-1.3641624450683594,,,,,,
1764808573.624599,,,,,,,-0.03882491588592529,0.44736170768737793,-0.323854923248291,-0.06645515561103821,0.3400116264820099,1.4825694561004639
1764808573.628067,3.5228099687665697,-0.2811468456327915,-0.36062194888591764,-0.5675998330116272,-0.04205318167805672,-1.254270315170288,,,,,,
1764808573.634629,,,,,,,-0.03870922327041626,0.4540219306945801,-0.33800339698791504,-0.07962435483932495,0.2553792893886566,1.4038885831832886
1764808573.638119,3.5762300087869163,-0.3634340836971998,-0.18380758438706396,-0.5896620154380798,-0.06748539209365845,-1.138383388519287,,,,,,
1764808573.644659,,,,,,,-0.0369490385055542,0.4473804831504822,-0.32746466994285583,-0.15075872838497162,0.12007712572813034,1.270705223083496
1764808573.648172,3.790827868235111,-0.5151438175559043,-0.2732745048224926,-0.6023980379104614,-0.12103064358234406,-1.0280760526657104,,,,,,
1764808573.654689,,,,,,,-0.05774533748626709,0.42849719524383545,-0.30685195326805115,-0.24811218678951263,0.019843202084302902,1.132958173751831
1764808573.658224,4.038561104565859,-0.7676303858935832,-0.5363318592742086,-0.5983855128288269,-0.17799633741378784,-0.9249987006187439,,,,,,
1764808573.664719,,,,,,,-0.09762692451477051,0.39429914951324463,-0.25048479437828064,-0.3691653907299042,-0.03624563291668892,1.0176533460617065
1764808573.668276,4.259528499045968,-0.9637637833684682,-0.8044120103240012,-0.590671956539154,-0.22957804799079895,-0.8276668190956116,,,,,,
1764808573.674749,,,,,,,-0.1365039348602295,0.3988061547279358,-0.21003460884094238,-0.4983838200569153,0.0034724855795502663,0.9412458539009094
1764808573.678329,4.376443982899189,-0.9416846380293369,-1.0402233381927013,-0.5774129033088684,-0.2749897241592407,-0.7493035793304443,,,,,,
1764808573.684778,,,,,,,-0.13530856370925903,0.41400378942489624,-0.19207799434661865,-0.6333690881729126,-0.0723370611667633,0.8637859225273132
1764808573.68838,4.326826257771254,-0.647565498098731,-1.2801347948566077,-0.5256633758544922,-0.3271874189376831,-0.6701152920722961,,,,,,
1764808573.694809,,,,,,,-0.12608319520950317,0.41581279039382935,-0.19464945793151855,-0.7468247413635254,-0.18524868786334991,0.7259765863418579
1764808573.698433,4.180708060309291,-0.5803881508827209,-1.4644687412053345,-0.46174031496047974,-0.3679291605949402,-0.5820816159248352,,,,,,
1764808573.704839,,,,,,,-0.14532160758972168,0.4522984027862549,-0.2194218635559082,-0.7374240756034851,-0.24800875782966614,0.612250804901123
1764808573.708485,4.122861436018347,-0.8832979155123233,-1.4742355174601076,-0.42095959186553955,-0.35058799386024475,-0.4933277666568756,,,,,,
1764808573.714869,,,,,,,-0.1908552050590515,0.530169665813446,-0.24004723131656647,-0.5647515654563904,-0.25737109780311584,0.5317809581756592
1764808573.718537,4.11552685534656,-1.381850079229474,-1.5409738887369633,-0.40029090642929077,-0.2589801549911499,-0.40941721200942993,,,,,,
1764808573.7249,,,,,,,-0.23771566152572632,0.6401733756065369,-0.2606426477432251,-0.2513025999069214,-0.20496539771556854,0.48340490460395813
1764808573.728589,4.222017975819111,-1.7087644043028354,-1.7471128396585582,-0.3991337716579437,-0.10433356463909149,-0.3208087980747223,,,,,,
1764808573.73493,,,,,,,-0.24681562185287476,0.7054196000099182,-0.2981456518173218,0.036245930939912796,-0.1411033272743225,0.4248330593109131
1764808573.738642,4.470473681205511,-1.539571620723605,-1.9503917249739169,-0.4066234230995178,0.03931593522429466,-0.19631074368953705,,,,,,
1764808573.74496,,,,,,,-0.21817225217819214,0.7108669281005859,-0.31140053272247314,0.1911201924085617,-0.14498622715473175,0.33119553327560425
1764808573.748694,4.862306760913134,-1.0763818622887134,-2.034318839199841,-0.39912527799606323,0.10580894351005554,-0.021293669939041138,,,,,,
1764808573.75499,,,,,,,-0.15901613235473633,0.6753555536270142,-0.28857421875,0.23215331137180328,-0.20172592997550964,0.2207384705543518
1764808573.758746,5.220951856768131,-0.5593652365982532,-2.1519459784537553,-0.34296557307243347,0.10780394077301025,0.17854228615760803,,,,,,
1764808573.76502,,,,,,,-0.10698825120925903,0.6336975693702698,-0.20817698538303375,0.23365134000778198,-0.31945550441741943,0.0813765674829483
1764808573.768798,5.272267617985606,-0.06806932761967181,-2.4205998377382754,-0.21951818466186523,0.07780236005783081,0.36573880910873413,,,,,,
1764808573.775049,,,,,,,-0.1049271821975708,0.6016586422920227,-0.13654114305973053,0.15958791971206665,-0.37887755036354065,-0.11309557408094406
1764808573.778852,4.963310389885306,0.2662111423075199,-2.5365935305714604,-0.07242536544799805,0.025613797828555107,0.5008944869041443,,,,,,
1764808573.785079,,,,,,,-0.13550257682800293,0.5963667035102844,-0.1064227968454361,0.05460796505212784,-0.37215280532836914,-0.31068506836891174
1764808573.788903,4.449889742860198,0.38235038109123703,-2.3309938010931015,0.06682706624269485,-0.04920691251754761,0.5962334871292114,,,,,,
1764808573.79511,,,,,,,-0.1551925539970398,0.6018069982528687,-0.10324369370937347,-0.04552589729428291,-0.3682909607887268,-0.5369483828544617
1764808573.798955,4.043355353105068,0.2483861472815275,-1.9555226581215857,0.17868931591510773,-0.11719860881567001,0.6930080056190491,,,,,,
1764808573.80514,,,,,,,-0.16088706254959106,0.6334159970283508,-0.11853206157684326,-0.04412640631198883,-0.3317611515522003,-0.7361363172531128
1764808573.809007,3.856173908370733,0.005453004708886146,-1.6520508756950496,0.2623956501483917,-0.12417023628950119,0.8148012757301331,,,,,,
1764808573.815171,,,,,,,-0.14623886346817017,0.6308777332305908,-0.13352681696414948,0.050868015736341476,-0.34962671995162964,-0.9178845286369324
1764808573.819059,3.802580849871039,-0.004857961425185203,-1.6884928929075598,0.3407116234302521,-0.07732237875461578,0.9526665806770325,,,,,,
1764808573.825201,,,,,,,-0.13204503059387207,0.6153644919395447,-0.15681292116641998,0.11774344742298126,-0.34682053327560425,-1.1113860607147217
1764808573.829112,3.7679064268529414,-0.01087386071383953,-1.8796216139629482,0.39734160900115967,-0.02097388356924057,1.0892702341079712,,,,,,
1764808573.83523,,,,,,,-0.10466617345809937,0.6071624159812927,-0.204009547829628,0.17515094578266144,-0.35859090089797974,-1.2285611629486084
