timestamp,phone_accel_x,phone_accel_y,phone_accel_z,phone_gyro_x,phone_gyro_y,phone_gyro_z,watch_accel_x,watch_accel_y,watch_accel_z,watch_gyro_x,watch_gyro_y,watch_gyro_z
1764808632.444871,-3.43177886775434,2.0078607481241226,2.4481349103957415,0.008316053077578545,2.4673867225646973,0.2953649163246155,,,,,,
1764808632.451016,,,,,,,0.3815271854400635,-0.24542135000228882,-0.2629115581512451,1.4401514530181885,0.6787497401237488,-0.20701061189174652
1764808632.454924,-2.93783156748414,2.6280291207313535,3.257403128579259,0.08721991628408432,2.29947566986084,0.3979567885398865,,,,,,
1764808632.461046,,,,,,,0.4254787564277649,-0.17447441816329956,-0.26191067695617676,1.781712532043457,0.5594017505645752,-0.023652777075767517
1764808632.464976,-1.997333508890867,2.7033091103821993,3.7289410286426543,0.17667022347450256,1.98212730884552,0.47595876455307007,,,,,,
1764808632.471077,,,,,,,0.4220411777496338,-0.1644650101661682,-0.19728779792785645,2.060689687728882,0.4427689015865326,0.09112207591533661
1764808632.475028,-0.8851432511180639,2.3907892213642596,3.6277100206553934,0.282732754945755,1.5657520294189453,0.46969127655029297,,,,,,
1764808632.481107,,,,,,,0.36771976947784424,-0.21726667881011963,-0.12405276298522949,2.18682599067688,0.40872809290885925,0.10953304171562195
1764808632.48508,-0.374230202999711,1.880146222358942,3.2908523937165737,0.3720574676990509,1.1205540895462036,0.3421352803707123,,,,,,
1764808632.491138,,,,,,,0.30107104778289795,-0.29504823684692383,-0.06452715396881104,2.0829761028289795,0.39944618940353394,0.1054161936044693
1764808632.495133,-0.12080664607286452,1.333693658825755,2.950780480906367,0.444333016872406,0.6553166508674622,0.14356227219104767,,,,,,
1764808632.501168,,,,,,,0.25097817182540894,-0.36951637268066406,-0.010189292952418327,1.7388089895248413,0.37618666887283325,0.13679620623588562
1764808632.505185,0.05333177721500396,0.8884650890171527,2.5550889722049233,0.49202755093574524,0.21261273324489594,-0.032328326255083084,,,,,,
1764808632.511197,,,,,,,0.21081119775772095,-0.4249292016029358,0.027096986770629883,1.2740223407745361,0.36480778455734253,0.1724471002817154
1764808632.515237,0.17168343135118483,0.56839785335958,2.2108394814491272,0.5130598545074463,-0.16030891239643097,-0.12670063972473145,,,,,,
1764808632.521228,,,,,,,0.1672714352607727,-0.44997668266296387,0.033460259437561035,0.8094650506973267,0.39914312958717346,0.16804808378219604
1764808632.52529,0.12843407221138475,0.500675731742382,1.9957769270986316,0.5017651915550232,-0.46417516469955444,-0.14972178637981415,,,,,,
1764808632.531258,,,,,,,0.13622546195983887,-0.40725457668304443,0.002422213088721037,0.3806941509246826,0.47605788707733154,0.17454473674297333
1764808632.535342,-0.031176059508323667,0.7390893510639667,1.8948358419686555,0.47207894921302795,-0.711814820766449,-0.14189769327640533,,,,,,
1764808632.541287,,,,,,,0.14633595943450928,-0.32746773958206177,-0.03838694095611572,0.09154461324214935,0.48164358735084534,0.2157779186964035
1764808632.545394,-0.38599136794209477,0.9612667058557272,1.6579443176478146,0.44081637263298035,-0.8649822473526001,-0.13594499230384827,,,,,,
1764808632.551317,,,,,,,0.18559008836746216,-0.2646375298500061,-0.07235133647918701,-0.02152988873422146,0.3816024661064148,0.2560141384601593
1764808632.555447,-0.6331003348946571,1.0051461795926093,1.336526836425066,0.39659494161605835,-0.9217427968978882,-0.12613539397716522,,,,,,
1764808632.561347,,,,,,,0.2129315733909607,-0.20258015394210815,-0.08888375759124756,-0.04153981804847717,0.2415606826543808,0.2861795127391815
1764808632.565499,-0.9430787227362394,0.843171072307229,1.0398515822708607,0.31990742683410645,-0.8661419153213501,-0.1404675543308258,,,,,,
1764808632.571378,,,,,,,0.20413804054260254,-0.1347392201423645,-0.08114659786224365,-0.027320565655827522,0.10607609152793884,0.3289245665073395
1764808632.575551,-1.1973632804065941,0.6005810440838336,0.6989839890383184,0.23730230331420898,-0.7351112365722656,-0.17599065601825714,,,,,,
1764808632.581408,,,,,,,0.1665821075439453,-0.10015344619750977,-0.06282377243041992,-0.0023773980792611837,0.020217908546328545,0.3761743903160095
1764808632.585603,-1.4397259296149014,0.3777186296373605,0.4213327304363251,0.1661551594734192,-0.5671403408050537,-0.23813365399837494,,,,,,
1764808632.591439,,,,,,,0.11581319570541382,-0.09096616506576538,-0.03634500503540039,-0.03720002993941307,-0.011782100424170494,0.4143548011779785
1764808632.595656,-1.7157447647094726,0.18068097679913042,0.24747429313361644,0.0977625697851181,-0.3663531243801117,-0.3119138181209564,,,,,,
1764808632.601469,,,,,,,0.06766670942306519,-0.08963280916213989,-0.005505561828613281,-0.12575066089630127,-0.01904800347983837,0.43736958503723145
1764808632.605708,-1.860904930794239,-0.01929039140343666,0.22457199484333396,0.00566193787381053,-0.12420706450939178,-0.36560529470443726,,,,,,
1764808632.611499,,,,,,,0.03876614570617676,-0.08837467432022095,0.013774635270237923,-0.2158263474702835,-0.0020511767361313105,0.43938127160072327
1764808632.61576,-1.6999176655024288,-0.1167471415489912,0.3255640795081854,-0.10500604659318924,0.12902432680130005,-0.3679375946521759,,,,,,
1764808632.621529,,,,,,,0.029255926609039307,-0.07548528909683228,0.026402829214930534,-0.28350767493247986,0.02776211127638817,0.43257102370262146
1764808632.625813,-1.4746312387794256,-0.0014385083705186843,0.2695616217792034,-0.18251337110996246,0.3446546196937561,-0.34657928347587585,,,,,,
1764808632.631558,,,,,,,0.045823752880096436,-0.05609852075576782,0.008834481239318848,-0.2813125252723694,0.018465548753738403,0.41139987111091614
1764808632.635865,-1.230566461828351,0.2772340561032295,0.12885668153762816,-0.21749410033226013,0.4973900616168976,-0.32890743017196655,,,,,,
1764808632.641588,,,,,,,0.0701603889465332,-0.049007952213287354,-0.016486288979649544,-0.21445438265800476,-0.04544498771429062,0.38839974999427795
1764808632.645917,-0.944230230858922,0.4897679687589407,0.12777188197560607,-0.23218250274658203,0.5660820603370667,-0.3211294114589691,,,,,,
1764808632.651618,,,,,,,0.07980620861053467,-0.04488050937652588,-0.01961207389831543,-0.15167498588562012,-0.09878837317228317,0.3740006983280182
1764808632.655969,-0.6182073016673326,0.4531804055958986,0.1437736801624298,-0.2377135455608368,0.5714347958564758,-0.3256419897079468,,,,,,
1764808632.661648,,,,,,,0.06842774152755737,-0.0253869891166687,-0.005016326904296875,-0.09451102465391159,-0.11017259210348129,0.384432315826416
1764808632.666022,-0.26773206826448437,0.2894850503891706,0.17731588428020476,-0.23478029668331146,0.5332098007202148,-0.3349810838699341,,,,,,
1764808632.671679,,,,,,,0.04582566022872925,-0.007037818431854248,0.010189173743128777,0.0063621774315834045,-0.09334088116884232,0.4202844500541687
1764808632.676074,0.06214578278958797,0.1980962219804525,0.18095453304350376,-0.22482939064502716,0.47187933325767517,-0.34319934248924255,,,,,,
1764808632.681709,,,,,,,0.026877880096435547,-0.007116079330444336,0.014156579971313477,0.10905180871486664,-0.05272633582353592,0.44624626636505127
1764808632.686126,0.31732056729793545,0.18954232864677906,0.20456870593018828,-0.20948931574821472,0.3898041844367981,-0.34164324402809143,,,,,,
1764808632.691739,,,,,,,0.01020348072052002,-0.018385648727416992,0.016694188117980957,0.19065119326114655,-0.0036064626183360815,0.4610549211502075
1764808632.696179,0.4004413335770368,0.20572131003141403,0.21720190446674822,-0.19797804951667786,0.3041668236255646,-0.33083418011665344,,,,,,
1764808632.70177,,,,,,,0.005653679370880127,-0.030929088592529297,0.01582920551300049,0.24417807161808014,0.036805409938097,0.47797396779060364
1764808632.706231,0.26569500947892666,0.19872282944619654,0.21307927157878875,-0.18823327124118805,0.23317892849445343,-0.32865652441978455,,,,,,
1764808632.7118,,,,,,,0.013553380966186523,-0.03477942943572998,0.01267707347869873,0.2747853398323059,0.06527619808912277,0.5032967925071716
1764808632.716283,0.024252397724986077,0.2126099005013704,0.20610066473782063,-0.17926211655139923,0.1909043788909912,-0.3349367082118988,,,,,,
1764808632.721829,,,,,,,0.027273356914520264,-0.031678199768066406,0.010237454436719418,0.29343733191490173,0.08422219008207321,0.5212888121604919
1764808632.726335,-0.19751579174399375,0.2659504455447197,0.2375724923223257,-0.17672865092754364,0.18355697393417358,-0.3490735590457916,,,,,,
1764808632.731859,,,,,,,0.040409207344055176,-0.02962857484817505,0.0015014410018920898,0.31020572781562805,0.08160776644945145,0.5174797773361206
1764808632.736388,-0.3530471297174692,0.2971545621037483,0.2571838593084365,-0.18191535770893097,0.21001309156417847,-0.3661635220050812,,,,,,
1764808632.741889,,,,,,,0.04779630899429321,-0.028906047344207764,-0.00028264615684747696,0.29781457781791687,0.060124579817056656,0.5059884786605835
1764808632.74644,-0.4682464573025703,0.2021837835550308,0.2326052253037691,-0.19057303667068481,0.2459830790758133,-0.37785375118255615,,,,,,
1764808632.75192,,,,,,,0.04377013444900513,-0.023904144763946533,0.005429625511169434,0.2825230062007904,0.04721197858452797,0.5099151730537415
1764808632.756492,-0.5340548542529344,0.09480360528826713,0.17427114628944546,-0.19764351844787598,0.2891349792480469,-0.3760976195335388,,,,,,
1764808632.76195,,,,,,,0.030187487602233887,-0.020667552947998047,0.0049724578857421875,0.27443552017211914,0.04235091060400009,0.5159571170806885
1764808632.766545,-0.5257675029009581,0.050237902852892875,0.11188742655813694,-0.20777109265327454,0.334968626499176,-0.3660421073436737,,,,,,
1764808632.77198,,,,,,,0.014072060585021973,-0.024165809154510498,0.00012421607971191406,0.2670382261276245,0.04311284050345421,0.5086081027984619
1764808632.776597,-0.44584699396789074,0.006339139893651008,0.10103811576366424,-0.2195257544517517,0.36839503049850464,-0.3565623164176941,,,,,,
1764808632.78201,,,,,,,0.009228765964508057,-0.03203696012496948,-0.0031502246856689453,0.25075167417526245,0.0348873995244503,0.49564918875694275
1764808632.786649,-0.3587859656304121,-0.04561082757413387,0.09750869952850043,-0.23155659437179565,0.37732380628585815,-0.35245466232299805,,,,,,
1764808632.792039,,,,,,,0.007256448268890381,-0.03520840406417847,-0.0027598137967288494,0.2320895791053772,0.01875503547489643,0.4993683397769928
1764808632.796702,-0.24583587827682493,-0.09948737919032573,0.10815580228175967,-0.2451179325580597,0.36536461114883423,-0.3547292649745941,,,,,,
1764808632.802069,,,,,,,0.01201939582824707,-0.037164509296417236,-0.0026373863220214844,0.21764911711215973,-0.004552151076495647,0.507822573184967
1764808632.806754,-0.14013912305235862,-0.11320552341938019,0.09175820971038191,-0.2602902352809906,0.3406171202659607,-0.36138200759887695,,,,,,
1764808632.8121,,,,,,,0.014826357364654541,-0.03782111406326294,-0.0049828290939331055,0.1978808492422104,-0.015781637281179428,0.5099192261695862
1764808632.816806,-0.017935469663143157,-0.08478022392392158,0.12167988524343817,-0.2745056748390198,0.2974421977996826,-0.369039386510849,,,,,,
1764808632.82213,,,,,,,0.013087034225463867,-0.034058451652526855,-0.004029273986816406,0.1703062206506729,-0.029903845861554146,0.5100119113922119
1764808632.826858,0.08938304154425859,-0.04867079966664314,0.10324055771138518,-0.27581462264060974,0.2534703016281128,-0.37188664078712463,,,,,,
1764808632.83216,,,,,,,0.0136491060256958,-0.0332757830619812,0.0017405750695616007,0.15218615531921387,-0.054636355489492416,0.5056136846542358
1764808632.836911,0.1680026970118284,-0.03680032913088798,0.05765493764374405,-0.26804912090301514,0.2067725956439972,-0.3647554814815521,,,,,,
1764808632.842191,,,,,,,0.007477462291717529,-0.03174138069152832,0.0035851006396114826,0.1268640160560608,-0.07284838706254959,0.4958329498767853
1764808632.846963,0.18338468279987571,-0.08749182097017764,0.047190169187448915,-0.27213314175605774,0.16227205097675323,-0.359031081199646,,,,,,
1764808632.85222,,,,,,,-0.003107011318206787,-0.022453486919403076,0.00514149758964777,0.08608805388212204,-0.06477634608745575,0.4950196146965027
1764808632.857015,0.12108049457818269,-0.1435217512279749,0.03985153339505195,-0.2765667736530304,0.12179175019264221,-0.35308051109313965,,,,,,
1764808632.862251,,,,,,,-0.010147452354431152,-0.008984863758087158,0.011143863201141357,0.049177173525094986,-0.06413612514734268,0.49879544973373413
1764808632.867068,0.05394640198200941,-0.17786708842217921,-0.05989128186106681,-0.27611351013183594,0.09872957319021225,-0.35873040556907654,,,,,,
1764808632.872281,,,,,,,-0.014663934707641602,-0.007229924201965332,0.01357501745223999,0.03072560764849186,-0.08026928454637527,0.5026827454566956
1764808632.87712,0.0035915947511792183,-0.19262743518054484,-0.1718026738166809,-0.2743329107761383,0.10042281448841095,-0.3690195083618164,,,,,,
1764808632.882311,,,,,,,-0.017343759536743164,-0.010300278663635254,0.010769546031951904,0.014809226617217064,-0.08261153846979141,0.4940764605998993
1764808632.887172,0.02411269699335098,-0.21389760222434998,-0.1747270368307829,-0.2872859835624695,0.09801752865314484,-0.3746066987514496,,,,,,
1764808632.89234,,,,,,,-0.02115386724472046,-0.006678640842437744,0.01229399349540472,-0.021553849801421165,-0.06911250203847885,0.4903663396835327
1764808632.897224,0.05886924533694982,-0.2113864961862564,-0.14894611436426639,-0.30111604928970337,0.0802244171500206,-0.37708476185798645,,,,,,
1764808632.90237,,,,,,,-0.018678247928619385,0.002027750015258789,0.014185906387865543,-0.03880687430500984,-0.07932945340871811,0.4954492449760437
1764808632.907277,0.09813830266892909,-0.19583762939870356,-0.19599661935269833,-0.30722421407699585,0.05848957970738411,-0.3772445023059845,,,,,,
1764808632.9124,,,,,,,-0.009801030158996582,0.007337450981140137,0.01390081737190485,-0.021751822903752327,-0.10639782249927521,0.496974915266037
1764808632.917329,0.13553718221485614,-0.15670856505930422,-0.25532208402454853,-0.3073054552078247,0.0454760417342186,-0.37015411257743835,,,,,,
1764808632.922431,,,,,,,-0.007327020168304443,0.015235841274261475,0.011518597602844238,-0.006088173948228359,-0.12486018985509872,0.49006322026252747
1764808632.927381,0.1917380851253867,-0.11099661519825457,-0.2725187180191278,-0.3075272738933563,0.0380195789039135,-0.3586479127407074,,,,,,
1764808632.932461,,,,,,,-0.01366877555847168,0.023063719272613525,0.016367733478546143,0.007471117191016674,-0.13439109921455383,0.48127883672714233
1764808632.937434,0.2092497764185071,-0.15363164183199404,-0.2886415853023529,-0.30319857597351074,0.0333997942507267,-0.34558379650115967,,,,,,
1764808632.942492,,,,,,,-0.024682164192199707,0.020444929599761963,0.024622080847620964,-0.0008760282071307302,-0.1340685933828354,0.47276949882507324
1764808632.947486,0.17066957813352346,-0.21062603320777415,-0.34578444523811336,-0.30005910992622375,0.030555052682757378,-0.33775243163108826,,,,,,
1764808632.952522,,,,,,,-0.03487110137939453,0.027751028537750244,0.028888998553156853,-0.009101403877139091,-0.12428947538137436,0.4694152772426605
1764808632.957538,0.14904051464945078,-0.2257429383188486,-0.40359833630323405,-0.2965719699859619,0.03435351699590683,-0.33623844385147095,,,,,,
1764808632.962552,,,,,,,-0.040953993797302246,0.03406810760498047,0.03252685070037842,-0.023625221103429794,-0.11218114197254181,0.4631965160369873
1764808632.96759,0.1608358741223812,-0.21441607314050196,-0.4241980567395687,-0.29272210597991943,0.03587471321225166,-0.3326612710952759,,,,,,
1764808632.972582,,,,,,,-0.042135775089263916,0.04744899272918701,0.02914351224899292,-0.04903459548950195,-0.07803516089916229,0.4515223205089569
1764808632.977643,0.22790420800596475,-0.10781447803080081,-0.37798809422850604,-0.292288213968277,0.021560898050665855,-0.326535165309906,,,,,,
1764808632.982611,,,,,,,-0.028349995613098145,0.049677252769470215,0.02986610122025013,-0.05377448722720146,-0.06907601654529572,0.43546053767204285
1764808632.987695,0.29142917019426823,-0.002689385214447975,-0.37944004660248754,-0.2900748550891876,0.009843787178397179,-0.31264039874076843,,,,,,
1764808632.992641,,,,,,,-0.012201666831970215,0.04800492525100708,0.031539201736450195,-0.05275803431868553,-0.10093754529953003,0.4063750207424164
1764808632.997747,0.30158728385418654,0.03201894007325172,-0.44943420480489726,-0.27389654517173767,-0.001124624744988978,-0.29651960730552673,,,,,,
1764808633.002671,,,,,,,-0.006354808807373047,0.0479925274848938,0.03893047571182251,-0.0625816360116005,-0.12803253531455994,0.38405001163482666
1764808633.0078,0.2883054852157831,0.02253682597875595,-0.4969827224433422,-0.2578997313976288,-0.008535669185221195,-0.27958056330680847,,,,,,
1764808633.012702,,,,,,,-0.013096511363983154,0.04963606595993042,0.044081687927246094,-0.05647524446249008,-0.13192927837371826,0.37628763914108276
1764808633.017852,0.2641144622892141,-0.02695931859612465,-0.5180512294352054,-0.24028408527374268,-0.016835594549775124,-0.2641337811946869,,,,,,
1764808633.022732,,,,,,,-0.02813774347305298,0.04606097936630249,0.04441314935684204,-0.044944021850824356,-0.1235661581158638,0.36556360125541687
1764808633.027904,0.2167690660074353,-0.11837795762121676,-0.5319885328402743,-0.22275356948375702,-0.019423121586441994,-0.254340261220932,,,,,,
1764808633.032762,,,,,,,-0.04409503936767578,0.045237720012664795,0.04723578691482544,-0.051182013005018234,-0.10758373141288757,0.3531200885772705
1764808633.037956,0.18815175107121465,-0.23771745375096798,-0.5388625102629885,-0.20847362279891968,-0.011246483772993088,-0.2518668472766876,,,,,,
1764808633.042792,,,,,,,-0.055339515209198,0.046163976192474365,0.05189525708556175,-0.04821604862809181,-0.09194458276033401,0.3496827483177185
1764808633.048009,0.1517497736081481,-0.306390592482686,-0.5857680538227781,-0.19462625682353973,0.005335567519068718,-0.2514289915561676,,,,,,
1764808633.052821,,,,,,,-0.06214815378189087,0.04139542579650879,0.052115559577941895,-0.04025938734412193,-0.07665910571813583,0.34379953145980835
1764808633.058061,0.15436024836748838,-0.3867757963180542,-0.6399719742298126,-0.17906834185123444,0.02255929447710514,-0.25118905305862427,,,,,,
1764808633.062853,,,,,,,-0.0688471794128418,0.04077106714248657,0.051528096199035645,-0.04113264009356499,-0.05877091363072395,0.3262788653373718
1764808633.068113,0.17743395770192144,-0.4373638277828693,-0.6318355025906115,-0.16731686890125275,0.023555051535367966,-0.25189557671546936,,,,,,
1764808633.072882,,,,,,,-0.0759739875793457,0.04725915193557739,0.05434310436248779,-0.04869816452264786,-0.03508369252085686,0.3031928539276123
1764808633.078166,0.23234072914868592,-0.40737317866683004,-0.6079308223247528,-0.15475139021873474,0.013386797159910202,-0.2494889795780182,,,,,,
1764808633.082913,,,,,,,-0.07776027917861938,0.05542808771133423,0.05490446090698242,-0.06648621708154678,-0.009492048993706703,0.28969889879226685
1764808633.088218,0.2926277323290706,-0.35222587646245956,-0.6700994014680385,-0.13419364392757416,0.003042014315724373,-0.24573259055614471,,,,,,
1764808633.092943,,,,,,,-0.07321131229400635,0.06472152471542358,0.05519622564315796,-0.07054100185632706,0.012662256136536598,0.2732139229774475
1764808633.09827,0.39582536421418185,-0.2634282335907221,-0.7118658285737037,-0.10725860297679901,-0.010046439245343208,-0.23478557169437408,,,,,,
1764808633.102973,,,,,,,-0.06463128328323364,0.06874793767929077,0.053489089012145996,-0.06943206489086151,0.026487523689866066,0.24374203383922577
1764808633.108322,0.49011605154424903,-0.14737842665612697,-0.6932792015254498,-0.07819099724292755,-0.02046419307589531,-0.21463049948215485,,,,,,
1764808633.113003,,,,,,,-0.05615335702896118,0.07543843984603882,0.053976062685251236,-0.0738796591758728,0.025459010154008865,0.21389639377593994
1764808633.118375,0.5285919126719236,-0.10552841292023658,-0.6915268049001694,-0.048642598092556,-0.015931162983179092,-0.1878560334444046,,,,,,
1764808633.123033,,,,,,,-0.051883161067962646,0.08349674940109253,0.05810946226119995,-0.08235916495323181,0.021596627309918404,0.19188030064105988
1764808633.128427,0.4853337857037782,-0.13382394855618476,-0.7521615986049175,-0.017147254198789597,0.005150153301656246,-0.16799470782279968,,,,,,
1764808633.133063,,,,,,,-0.05625230073928833,0.09158456325531006,0.06415867805480957,-0.0989340990781784,0.035577692091464996,0.17862862348556519
1764808633.138479,0.41688188850730656,-0.13949322636425493,-0.8536345986545085,0.011802422814071178,0.04206039756536484,-0.15972767770290375,,,,,,
1764808633.143093,,,,,,,-0.06727129220962524,0.09526240825653076,0.06532084941864014,-0.13928285241127014,0.054046180099248886,0.16287761926651
1764808633.148532,0.42316432977765794,-0.21494331188499927,-0.9289560893595218,0.03775519132614136,0.07761386781930923,-0.16086484491825104,,,,,,
1764808633.153123,,,,,,,-0.07891184091567993,0.09289836883544922,0.06313169002532959,-0.2179160714149475,0.06795134395360947,0.13238608837127686
1764808633.158584,0.4995595871940255,-0.31870588417649265,-0.9554337619185447,0.0664118155837059,0.09859003126621246,-0.17094029486179352,,,,,,
1764808633.163153,,,,,,,-0.08896422386169434,0.08901572227478027,0.06707125902175903,-0.33149775862693787,0.08307063579559326,0.08868148922920227
1764808633.168636,0.7162520808339119,-0.3721399527221918,-1.0146844808537512,0.10937366634607315,0.09897618740797043,-0.16655033826828003,,,,,,
1764808633.173184,,,,,,,-0.09922808408737183,0.0907166600227356,0.06740689277648926,-0.4559357166290283,0.08824675530195236,0.0315360464155674
1764808633.178688,0.9698761287689208,-0.4628115727722645,-1.0114707064390183,0.16065730154514313,0.07724442332983017,-0.13937696814537048,,,,,,
1764808633.183214,,,,,,,-0.1127927303314209,0.09611159563064575,0.07236838340759277,-0.5720990300178528,0.0920066088438034,-0.04474594071507454
1764808633.18874,1.1900143789485096,-0.5576894123405218,-0.9822656547427177,0.22162824869155884,0.04455918073654175,-0.0936153382062912,,,,,,
1764808633.193244,,,,,,,-0.1310296654701233,0.10680800676345825,0.08130443096160889,-0.6804527640342712,0.12260739505290985,-0.15176168084144592
1764808633.198793,1.3081272558927535,-0.6082827045023441,-0.8859703495919704,0.2807251811027527,-0.0013014392461627722,-0.04475761204957962,,,,,,
1764808633.203274,,,,,,,-0.1452905535697937,0.14850711822509766,0.07539165019989014,-0.75182044506073,0.1673399806022644,-0.227761372923851
1764808633.208845,1.3398325999721883,-0.6318681627511977,-0.8788637324571609,0.3532966077327728,-0.04007493332028389,-0.002938792109489441,,,,,,
1764808633.213304,,,,,,,-0.1525591015815735,0.20476025342941284,0.05591845512390137,-0.7200020551681519,0.1980329155921936,-0.270258367061615
1764808633.218898,1.3672519372954963,-0.6541431229233742,-1.0272960520803929,0.4285847842693329,-0.031642477959394455,0.04209006950259209,,,,,,
1764808633.223334,,,,,,,-0.15519917011260986,0.24642443656921387,0.03809773921966553,-0.616736650466919,0.2148827314376831,-0.3113224506378174
1764808633.22895,1.4490376555785536,-0.694354721802473,-1.2067910339653491,0.4974815547466278,0.05191313475370407,0.09424754232168198,,,,,,
1764808633.233364,,,,,,,-0.16975021362304688,0.2706371545791626,0.028107523918151855,-0.5192347168922424,0.239190474152565,-0.3660466969013214
1764808633.239002,1.5421835567876696,-0.8734884691596031,-1.3021885134935378,0.5477948188781738,0.1797654926776886,0.15134625136852264,,,,,,
1764808633.243394,,,,,,,-0.18970251083374023,0.27923583984375,0.013984084129333496,-0.43310439586639404,0.2799863815307617,-0.4220564365386963
1764808633.249054,1.6599004201516507,-1.1464081691950558,-1.276506959748268,0.5792050361633301,0.29540935158729553,0.21284018456935883,,,,,,
1764808633.253424,,,,,,,-0.21041303873062134,0.2849719524383545,-0.0006455201655626297,-0.34658464789390564,0.3331012427806854,-0.4968993365764618
1764808633.259107,1.8373226874157784,-1.3776204788357018,-1.2386276032090187,0.6054816246032715,0.3739861845970154,0.28708165884017944,,,,,,
1764808633.263454,,,,,,,-0.22387182712554932,0.31009888648986816,-0.0007275380194187164,-0.24664659798145294,0.3901576101779938,-0.5861919522285461
1764808633.269159,2.046210352523625,-1.4283826978236436,-1.2554431289315222,0.6316299438476562,0.41885632276535034,0.37431982159614563,,,,,,
1764808633.273484,,,,,,,-0.2282627820968628,0.3543696403503418,0.005593176931142807,-0.09991324692964554,0.43995288014411926,-0.6766807436943054
1764808633.279211,2.2058093783274293,-1.2259557531625032,-1.330711428144574,0.6712255477905273,0.4481649398803711,0.4724964499473572,,,,,,
1764808633.283514,,,,,,,-0.2183738350868225,0.3976736068725586,0.013986464589834213,0.05628807097673416,0.4869731068611145,-0.7613407969474792
1764808633.289264,2.37386351326555,-0.8408154490917921,-1.459708394935727,0.728153645992279,0.49891892075538635,0.5663454532623291,,,,,,
1764808633.293545,,,,,,,-0.20021367073059082,0.4262065887451172,0.02546047791838646,0.18226395547389984,0.5355103015899658,-0.8268919587135315
1764808633.299316,2.508395902352035,-0.458933270034194,-1.633256451115012,0.8010395765304565,0.5664460062980652,0.6664320826530457,,,,,,
1764808633.303575,,,,,,,-0.17394012212753296,0.4264233708381653,0.03504716977477074,0.28921037912368774,0.5791901350021362,-0.8965302109718323
1764808633.309368,2.67231133005023,-0.16972236041128635,-1.6441759045362472,0.8750736713409424,0.6223188638687134,0.7795184850692749,,,,,,
1764808633.313605,,,,,,,-0.14741313457489014,0.4147363305091858,0.043341875076293945,0.31304267048835754,0.6186203360557556,-0.9905213117599487
1764808633.31942,2.7694486389830706,-0.06365092665553093,-1.5708102240741253,0.9336429834365845,0.6574838161468506,0.8973151445388794,,,,,,
1764808633.323635,,,,,,,-0.1253833770751953,0.39674705266952515,0.0650477409362793,0.23486316204071045,0.6395906209945679,-1.1319735050201416
1764808633.329473,2.739370896105468,-0.020469956576824187,-1.555028717574477,0.9852703213691711,0.6706663370132446,0.9985853433609009,,,,,,
1764808633.333665,,,,,,,-0.10650670528411865,0.3881007432937622,0.09053825587034225,0.00781845673918724,0.6428495049476624,-1.3076812028884888
1764808633.339525,2.673902398633957,0.12462708114385604,-1.6078215656071901,1.0335313081741333,0.6681613326072693,1.0834554433822632,,,,,,
1764808633.343695,,,,,,,-0.07854878902435303,0.38892608880996704,0.1022101640701294,-0.25362005829811096,0.6135619282722473,-1.4334602355957031
1764808633.349577,2.754803735297918,0.2672299639612436,-1.6544482922255992,1.0726757049560547,0.6499561071395874,1.1665265560150146,,,,,,
1764808633.353725,,,,,,,-0.04511076211929321,0.3856644034385681,0.09741901606321335,-0.4944399297237396,0.5736938714981079,-1.5599299669265747
1764808633.35963,3.0228190044179555,0.38007249928712844,-1.6443752265006302,1.096192479133606,0.6014527678489685,1.267140507698059,,,,,,
1764808633.363755,,,,,,,-0.022804319858551025,0.398392915725708,0.0815952941775322,-0.5851151943206787,0.556650698184967,-1.6708309650421143
1764808633.369682,3.3234336438477037,0.4665636187821626,-1.593222546890378,1.110027551651001,0.5066916346549988,1.3788484334945679,,,,,,
1764808633.373785,,,,,,,-0.010847151279449463,0.41619497537612915,0.06429755687713623,-0.5366809964179993,0.5491736531257629,-1.7736574411392212
1764808633.379734,3.5049943260908125,0.5902823529094458,-1.6449673471748827,1.1294375658035278,0.3940441310405731,1.4801596403121948,,,,,,
1764808633.383815,,,,,,,-0.006192684173583984,0.43176496028900146,0.07601560652256012,-0.6316988468170166,0.53879714012146,-1.9094831943511963
1764808633.389786,3.452494908046722,0.7853004826188087,-1.8034353231221436,1.1762751340866089,0.281796395778656,1.5506476163864136,,,,,,
1764808633.393845,,,,,,,-0.003832876682281494,0.4037899374961853,0.11852896213531494,-0.9206928610801697,0.548573911190033,-2.0595343112945557
1764808633.399839,3.3288515772432086,1.060037461209297,-1.8477093491345642,1.2600477933883667,0.16289345920085907,1.618412733078003,,,,,,
1764808633.403875,,,,,,,0.00571829080581665,0.3309696912765503,0.16991651058197021,-1.3278822898864746,0.5684213638305664,-2.1735594272613525
1764808633.409891,3.2807758208602666,1.3659148434728383,-1.815574089205265,1.361280918121338,0.018500864505767822,1.7039735317230225,,,,,,
1764808633.413906,,,,,,,0.019884765148162842,0.3065887689590454,0.20759284496307373,-1.7607018947601318,0.5873396396636963,-2.2719357013702393
1764808633.419943,3.2740485584318635,1.628454019269347,-1.877500822416693,1.4725130796432495,-0.11154108494520187,1.8049966096878052,,,,,,
1764808633.423936,,,,,,,0.03338122367858887,0.37396901845932007,0.21967077255249023,-1.9741462469100952,0.6251392364501953,-2.3663580417633057
1764808633.429996,3.3892724359363315,1.774010491195321,-1.9587264225989578,1.5754681825637817,-0.2018565982580185,1.9297438859939575,,,,,,
1764808633.433966,,,,,,,0.045803725719451904,0.47290897369384766,0.20483030378818512,-1.8725286722183228,0.6948922276496887,-2.4548935890197754
1764808633.440048,3.4841380005449056,1.8555647388100622,-1.9295973587483166,1.6561862230300903,-0.24532820284366608,2.0752406120300293,,,,,,
1764808633.443996,,,,,,,0.05150806903839111,0.5433791279792786,0.1955432891845703,-1.6175919771194458,0.7966633439064026,-2.56386399269104
1764808633.4501,3.36340792683959,1.8818997880280017,-1.8947027171082793,1.7188389301300049,-0.24089722335338593,2.2102763652801514,,,,,,
1764808633.454026,,,,,,,0.0473480224609375,0.5780431032180786,0.2058139145374298,-1.4241312742233276,0.9464413523674011,-2.6824443340301514
1764808633.460151,3.0091286249786613,1.8996505487740039,-1.8262755159616468,1.7885048389434814,-0.2140987664461136,2.3241429328918457,,,,,,
1764808633.464056,,,,,,,0.054423511028289795,0.5838990211486816,0.22968676686286926,-1.3493441343307495,1.1224075555801392,-2.7851107120513916
1764808633.470205,2.620766436251998,2.0821657552629707,-1.783471562501788,1.8842787742614746,-0.1823197901248932,2.434656858444214,,,,,,
1764808633.474086,,,,,,,0.07492095232009888,0.5445957183837891,0.25999489426612854,-1.3603265285491943,1.2768982648849487,-2.9034194946289062
1764808633.480257,2.3752023606538772,2.3133114294081927,-1.8710048845261333,2.002728223800659,-0.1462215632200241,2.5523715019226074,,,,,,
1764808633.484116,,,,,,,0.09830451011657715,0.5065146088600159,0.3021579682826996,-1.4278496503829956,1.4181574583053589,-3.0391671657562256
1764808633.490309,2.29759422031641,2.4945745900094507,-1.9412673382759094,2.1251320838928223,-0.11499786376953125,2.67801833152771,,,,,,
1764808633.494146,,,,,,,0.12423700094223022,0.5065401196479797,0.33144307136535645,-1.4888973236083984,1.5685945749282837,-3.165196180343628
1764808633.500361,2.3659891266286373,2.6824878561496734,-2.0307517943680287,2.2508704662323,-0.0767228901386261,2.801724433898926,,,,,,
1764808633.504176,,,,,,,0.15542274713516235,0.5189661383628845,0.3569130301475525,-1.4873348474502563,1.739133596420288,-3.28715181350708
1764808633.510414,2.584532508832216,2.925356701314449,-2.1539250234417615,2.3731956481933594,-0.033263031393289566,2.926717519760132,,,,,,
1764808633.514206,,,,,,,0.18909752368927002,0.5380822420120239,0.3851099908351898,-1.4221210479736328,1.921512484550476,-3.378380537033081
1764808633.520466,2.8678169510155915,3.228763894072175,-2.1658130296342075,2.4917447566986084,0.0003063958138227463,3.07062029838562,,,,,,
1764808633.524236,,,,,,,0.23042404651641846,0.5595172047615051,0.38996896147727966,-1.2453430891036987,2.1067168712615967,-3.4662539958953857
1764808633.530518,2.9846897647708652,3.4274674342960116,-2.0046803645223377,2.602579116821289,0.005797567777335644,3.227308511734009,,,,,,
1764808633.534267,,,,,,,0.26247790455818176,0.5681079030036926,0.3888711631298065,-1.0326039791107178,2.291719913482666,-3.544801712036133
1764808633.540571,2.90778655783236,3.523721238392591,-1.7454829003691672,2.69160532951355,-0.006804611533880234,3.3828928470611572,,,,,,
1764808633.544297,,,,,,,0.2958139181137085,0.5739805102348328,0.3785521984100342,-0.8399584293365479,2.496973991394043,-3.6241488456726074
1764808633.550623,2.6789836474210023,3.700427466341853,-1.54594057123363,2.772109031677246,-0.024078940972685814,3.5095651149749756,,,,,,
1764808633.554327,,,,,,,0.335785835981369,0.5700894594192505,0.40022581815719604,-0.6925454139709473,2.694803237915039,-3.718831777572632
1764808633.560675,2.44159060331881,4.064766097663343,-1.552941974428296,2.8896303176879883,-0.030525244772434235,3.6130640506744385,,,,,,
1764808633.564357,,,,,,,0.3846369981765747,0.5495625138282776,0.4342392683029175,-0.6376150250434875,2.852848768234253,-3.8270678520202637
1764808633.570727,2.328378065636754,4.487161488895118,-1.8090733290091157,3.0253498554229736,-0.015348156914114952,3.725290060043335,,,,,,
1764808633.574387,,,,,,,0.43959498405456543,0.5174621939659119,0.4609493613243103,-0.7862570285797119,3.009842872619629,-3.9759085178375244
1764808633.58078,2.312094454833865,4.988619603186845,-2.0393211775317788,3.1708478927612305,-0.004924112930893898,3.8484609127044678,,,,,,
1764808633.584417,,,,,,,0.49063193798065186,0.4879991412162781,0.5220110416412354,-1.0386404991149902,3.137126922607422,-4.080322265625
1764808633.590832,2.4808833337873217,5.240151062756777,-2.151562239833176,3.313478469848633,-0.005914276000112295,4.000924587249756,,,,,,
1764808633.594447,,,,,,,0.5439942479133606,0.47455698251724243,0.5254772901535034,-1.2230323553085327,3.26073956489563,-4.12407922744751
1764808633.600884,2.6989018153339623,5.189245051383972,-1.8418194143131374,3.389288902282715,-0.04647037014365196,4.154688835144043,,,,,,
1764808633.604477,,,,,,,0.5775171518325806,0.489175021648407,0.477804958820343,-1.2599387168884277,3.4103903770446777,-4.147819995880127
1764808633.610937,2.7491706978470085,4.900046416720747,-1.1916703294619917,3.3972008228302,-0.11728116124868393,4.26499605178833,,,,,,
1764808633.614507,,,,,,,0.5926268696784973,0.5160385966300964,0.4278061091899872,-1.0879583358764648,3.5597381591796875,-4.157578945159912
1764808633.620989,2.5693752717107534,4.5516205170631405,-0.7371662740468978,3.3854146003723145,-0.20158405601978302,4.331525802612305,,,,,,
1764808633.624537,,,,,,,0.6082755923271179,0.5268497467041016,0.3792072534561157,-0.7846336364746094,3.6928117275238037,-4.162505149841309
1764808633.631041,2.0793670644551514,4.396193516246974,-0.4892950905501842,3.356778383255005,-0.24677549302577972,4.363427639007568,,,,,,
1764808633.634567,,,,,,,0.6227941513061523,0.5059625506401062,0.34991952776908875,-0.500510573387146,3.80501389503479,-4.178199768066406
1764808633.641093,1.4439216277390718,4.443742618407309,-0.5249924268752336,3.336604595184326,-0.23281149566173553,4.371234893798828,,,,,,
1764808633.644597,,,,,,,0.6409996747970581,0.47525733709335327,0.3555898368358612,-0.3468283414840698,3.8825671672821045,-4.22383975982666
1764808633.651146,0.9462316338092088,4.63957586389184,-0.7969856597155333,3.3535492420196533,-0.17432156205177307,4.411286354064941,,,,,,
1764808633.654628,,,,,,,0.677940309047699,0.4478343725204468,0.35721778869628906,-0.33110079169273376,3.8940775394439697,-4.23197603225708
1764808633.661198,0.7271534140765666,4.784390869800746,-0.8605480313047766,3.3469181060791016,-0.0879235491156578,4.466729640960693,,,,,,
1764808633.664658,,,,,,,0.723285436630249,0.39484286308288574,0.3289080858230591,-0.3626001179218292,3.867302894592285,-4.219594478607178
1764808633.67125,0.6266518894076347,4.551165759032965,-0.7653308767795562,3.3217687606811523,-0.0006767383310943842,4.492565155029297,,,,,,
1764808633.674688,,,,,,,0.7338588237762451,0.3267899751663208,0.31986019015312195,-0.43706798553466797,3.8540380001068115,-4.19114875793457
1764808633.681303,0.7225690088957548,4.215237229637801,-0.5981155307531356,3.297715425491333,0.037143878638744354,4.488072872161865,,,,,,
1764808633.684718,,,,,,,0.7236901521682739,0.27643799781799316,0.301439106464386,-0.4875902831554413,3.8481788635253906,-4.1372246742248535
1764808633.691355,0.9008411709874868,4.048213899052143,-0.33201194047331806,3.2504611015319824,0.020218918099999428,4.450638771057129,,,,,,
1764808633.694748,,,,,,,0.7151145935058594,0.23443126678466797,0.28180500864982605,-0.47890985012054443,3.807095527648926,-4.053976058959961
1764808633.701407,1.0399415986418723,3.817110602743923,-0.10256050302535295,3.1787943840026855,-0.023913122713565826,4.408533096313477,,,,,,
1764808633.704778,,,,,,,0.7023303508758545,0.23031139373779297,0.23788806796073914,-0.3618468642234802,3.774143934249878,-3.9579458236694336
1764808633.711458,1.0443506472557782,3.5433652655392884,0.07995674929022789,3.0899953842163086,-0.06434321403503418,4.370548248291016,,,,,,
1764808633.714808,,,,,,,0.6738794445991516,0.23899614810943604,0.17937275767326355,-0.18615220487117767,3.778291702270508,-3.8758559226989746
1764808633.721512,0.6754039376169443,3.364392261701822,0.22571634257286785,3.0009384155273438,-0.05163193866610527,4.296760559082031,,,,,,
1764808633.724838,,,,,,,0.6473215818405151,0.23065006732940674,0.18169957399368286,-0.05130917578935623,3.773953676223755,-3.805022954940796
1764808633.731564,0.15617548109591006,3.340887467473745,0.12376169648617505,2.9361889362335205,0.016117703169584274,4.2141947746276855,,,,,,
1764808633.734868,,,,,,,0.642217218875885,0.21473032236099243,0.2017064392566681,0.03402358293533325,3.7562034130096436,-3.724365711212158
1764808633.741616,-0.20632161401212215,3.524865147730708,0.02876344540864229,2.895906925201416,0.1107691153883934,4.149294376373291,,,,,,
1764808633.744898,,,,,,,0.6550950407981873,0.19421738386154175,0.1900164783000946,0.05759388953447342,3.728334426879883,-3.6603074073791504
1764808633.751668,-0.3488502625495195,3.8074420261666178,0.01918371615856886,2.852062463760376,0.21629959344863892,4.08228063583374,,,,,,
1764808633.754928,,,,,,,0.6728282570838928,0.16188567876815796,0.1886194944381714,0.05463625490665436,3.6694772243499756,-3.5729713439941406
1764808633.761721,-0.2896083845078945,3.9063814160853623,0.08340835104882717,2.806180477142334,0.28445494174957275,4.020218849182129,,,,,,
1764808633.764958,,,,,,,0.6793814301490784,0.1296876072883606,0.1627219319343567,0.07820843160152435,3.6000077724456787,-3.4597578048706055
1764808633.771773,-0.08064765416383743,3.736735628041625,0.3482005664691329,2.733977794647217,0.3039012551307678,3.954087972640991,,,,,,
1764808633.774989,,,,,,,0.6659969091415405,0.10958003997802734,0.12216010689735413,0.16968582570552826,3.533550262451172,-3.3575446605682373
1764808633.781825,0.02976853079795837,3.298309139463305,0.3744976217642426,2.6545283794403076,0.3030948340892792,3.8516361713409424,,,,,,
1764808633.785019,,,,,,,0.6285576224327087,0.09102833271026611,0.1429029256105423,0.2175140678882599,3.4757533073425293,-3.2807953357696533
1764808633.791878,0.11931377716660499,3.2047341991871594,0.03817512461543083,2.6041946411132812,0.2934698462486267,3.7375338077545166,,,,,,
1764808633.795049,,,,,,,0.6081377863883972,0.10040414333343506,0.19133618474006653,0.21631759405136108,3.405836820602417,-3.1633033752441406
1764808633.80193,0.3265963451653719,3.4463305401980877,-0.3073261197671294,2.560873031616211,0.2974792420864105,3.6497554779052734,,,,,,
1764808633.805079,,,,,,,0.6013461947441101,0.08051502704620361,0.18332815170288086,0.2250322550535202,3.3001701831817627,-3.058624744415283
1764808633.811982,0.5083575184166431,3.337373906394839,-0.2879734767824411,2.5067079067230225,0.2954239547252655,3.5959572792053223,,,,,,
1764808633.815109,,,,,,,0.5585747361183167,0.06359773874282837,0.1801050752401352,0.22421014308929443,3.254786729812622,-2.960172653198242
1764808633.822034,0.5396200871646404,3.003101035252213,-0.23208616986572742,2.468825340270996,0.2764025926589966,3.5404763221740723,,,,,,
1764808633.825139,,,,,,,0.4903380274772644,0.05525803565979004,0.19142401218414307,0.20948125422000885,3.2159368991851807,-2.8777949810028076
1764808633.832087,0.4755062191724777,2.7031442752093073,-0.5214680521413684,2.4556682109832764,0.27272626757621765,3.4464454650878906,,,,,,
1764808633.835169,,,,,,,0.44094032049179077,0.02650269865989685,0.20850324630737305,0.15183527767658234,3.194129467010498,-2.7842047214508057
1764808633.842139,0.31915947316288945,2.577518246155977,-0.6944305635176599,2.4387083053588867,0.23126165568828583,3.3448100090026855,,,,,,
1764808633.845199,,,,,,,0.4235321283340454,0.010707736015319824,0.2166696935892105,0.10435058176517487,3.137578248977661,-2.68741512298584
1764808633.852191,0.23990239657461643,2.530656541737914,-0.674790043502301,2.4097976684570312,0.2119729071855545,3.246098279953003,,,,,,
1764808633.855229,,,,,,,0.42079073190689087,0.027496427297592163,0.23127317428588867,0.12065312266349792,3.0928521156311035,-2.598543643951416
1764808633.862243,0.12310147901177405,2.402140636461973,-0.9079926501773298,2.3897480964660645,0.2677062451839447,3.1535356044769287,,,,,,
1764808633.865259,,,,,,,0.4060198664665222,0.047144949436187744,0.2371903657913208,0.13597124814987183,3.0754809379577637,-2.55617618560791
1764808633.872296,0.00395662867128849,2.501857732754946,-0.9113695061992854,2.3597562313079834,0.3449280560016632,3.0866458415985107,,,,,,
1764808633.875289,,,,,,,0.3972300887107849,0.10350772738456726,0.2487214207649231,0.16956517100334167,3.055844306945801,-2.4856624603271484
1764808633.882348,0.07657002946138382,2.731071562054753,-0.7772323269754647,2.3309643268585205,0.42921844124794006,3.051870584487915,,,,,,
1764808633.885319,,,,,,,0.3982492685317993,0.13648730516433716,0.20554310083389282,0.2811606824398041,3.008713960647583,-2.4565272331237793
1764808633.8924,0.29960137073397636,2.4926146881133318,-0.7624024221122264,2.2921314239501953,0.5073902010917664,3.0331807136535645,,,,,,
1764808633.89535,,,,,,,0.361667275428772,0.15365871787071228,0.2286890149116516,0.3405943810939789,3.057874917984009,-2.463738203048706
1764808633.902453,0.49705315733104943,2.5344097567915913,-0.6545277383267879,2.2451870441436768,0.5516409873962402,3.016465425491333,,,,,,
1764808633.90538,,,,,,,0.35394614934921265,0.19814783334732056,0.28674864768981934,0.4070271849632263,3.0762929916381836,-2.4468488693237305
1764808633.912505,0.8337415651828051,3.049519672077894,-0.8574392516344785,2.207296848297119,0.5589902400970459,3.0199077129364014,,,,,,
1764808633.91541,,,,,,,0.40091997385025024,0.21138712763786316,0.2624913454055786,0.4662257134914398,2.9962034225463867,-2.4646871089935303
1764808633.922557,1.1805816569536924,3.1133465398222206,-0.9325544061124325,2.138808012008667,0.48465409874916077,3.049495220184326,,,,,,
1764808633.92544,,,,,,,0.42338305711746216,0.19742581248283386,0.23972728848457336,0.4576287567615509,2.9282073974609375,-2.488502025604248
1764808633.932609,1.3382581902623176,2.9954098962277174,-0.7689163340508938,2.039515733718872,0.40926265716552734,3.0723910331726074,,,,,,
1764808633.93547,,,,,,,0.42947161197662354,0.19949595630168915,0.22899943590164185,0.43950220942497253,2.8789443969726562,-2.497354030609131
1764808633.942662,1.3572291404530406,3.0876036112785337,-0.6698235071361065,1.9527312517166138,0.34940892457962036,3.0823378562927246,,,,,,
1764808633.9455,,,,,,,0.4406222701072693,0.18302443623542786,0.22592657804489136,0.4307585060596466,2.8043081760406494,-2.4910190105438232
1764808633.952714,1.1195943965494632,3.1428011823654174,-0.6403870578367262,1.8959300518035889,0.2823483943939209,3.0696232318878174,,,,,,
1764808633.95553,,,,,,,0.441650927066803,0.13519766926765442,0.2292822003364563,0.4202006757259369,2.7337236404418945,-2.4742698669433594
1764808633.962765,0.6898112331539392,3.157209062424302,-0.7457680251102894,1.8478304147720337,0.23720824718475342,3.028776168823242,,,,,,
1764808633.96556,,,,,,,0.43038082122802734,0.10149182379245758,0.23098254203796387,0.38679930567741394,2.7019052505493164,-2.455540180206299
1764808633.972818,0.2957464488714933,3.257161721038818,-0.7898107265848666,1.7841013669967651,0.22615981101989746,2.9714362621307373,,,,,,
1764808633.97559,,,,,,,0.446285605430603,0.11299236118793488,0.23876044154167175,0.4030589461326599,2.6057376861572266,-2.4264731407165527
1764808633.982871,0.1868728171765804,3.262766116917133,-0.8602256674826144,1.742949366569519,0.21961721777915955,2.9232380390167236,,,,,,
1764808633.98562,,,,,,,0.4634394645690918,0.11318234354257584,0.2223508059978485,0.4344205856323242,2.520530939102173,-2.396366596221924
1764808633.992923,0.12426686952933669,3.255304110473394,-0.9004559710621833,1.6879860162734985,0.22342714667320251,2.8718101978302,,,,,,
1764808633.99565,,,,,,,0.44403553009033203,0.07268057018518448,0.2014804482460022,0.39107149839401245,2.4691946506500244,-2.37371826171875
1764808634.002975,-0.02916106642410159,3.249331465804577,-0.7542481956206262,1.6116852760314941,0.21700726449489594,2.80780291557312,,,,,,
1764808634.00568,,,,,,,0.44629108905792236,0.036770306527614594,0.2005029320716858,0.34838634729385376,2.3925695419311523,-2.330693244934082
1764808634.013028,-0.11345496813580393,3.3368525128692386,-0.7607014634132385,1.5412057638168335,0.18811090290546417,2.735926389694214,,,,,,
1764808634.01571,,,,,,,0.4732692837715149,0.02275201678276062,0.1942521333694458,0.33551520109176636,2.274506092071533,-2.2648255825042725
1764808634.02308,-0.20190642791837451,3.301571940651536,-0.9417943820141256,1.4654029607772827,0.15199056267738342,2.6495091915130615,,,,,,
1764808634.025741,,,,,,,0.4752576947212219,0.0016040073242038488,0.16218653321266174,0.31506478786468506,2.1591079235076904,-2.2227418422698975
1764808634.033132,-0.3314475115235895,3.0481273409366607,-0.8333505200386047,1.3515034914016724,0.08076193183660507,2.5545663833618164,,,,,,
1764808634.035771,,,,,,,0.45661330223083496,-0.023389777168631554,0.15540242195129395,0.29286298155784607,2.0768051147460938,-2.154170036315918
1764808634.043184,-0.458469232719019,3.095166155487299,-0.682168901707232,1.2544150352478027,0.040951892733573914,2.4582672119140625,,,,,,
1764808634.045801,,,,,,,0.46045124530792236,-0.03191050887107849,0.13066816329956055,0.30568504333496094,1.9592950344085693,-2.0847747325897217
1764808634.053237,-0.601815627380088,3.1614170355081557,-0.7084032670296728,1.1755229234695435,0.049003422260284424,2.356313467025757,,,,,,
1764808634.055831,,,,,,,0.4625592827796936,-0.05598178133368492,0.11405545473098755,0.2771187424659729,1.8601298332214355,-2.015638828277588
1764808634.063289,-0.8238496281784027,3.253217951849103,-0.4712286879837513,1.0984125137329102,0.029033655300736427,2.2470755577087402,,,,,,
1764808634.065861,,,,,,,0.46422863006591797,-0.07966134697198868,0.1106063723564148,0.2929946482181549,1.7600098848342896,-1.910936713218689
1764808634.073341,-0.993767072770372,3.52077700163424,-0.3442471526682377,1.0233051776885986,0.009593645110726357,2.130420207977295,,,,,,
1764808634.075891,,,,,,,0.48167967796325684,-0.0904822051525116,0.06251519918441772,0.32335373759269714,1.6071609258651733,-1.8210347890853882
1764808634.083393,-1.1024604525275528,3.335759456935525,-0.3289923003911972,0.9085832834243774,-0.013845924288034439,1.9958449602127075,,,,,,
1764808634.085921,,,,,,,0.48918527364730835,-0.10594788193702698,0.024432659149169922,0.3002888858318329,1.46912682056427,-1.7266268730163574
1764808634.093445,-1.2668468587383628,2.99107800450325,-0.18896511328071355,0.7886507511138916,-0.038806136697530746,1.8396062850952148,,,,,,
1764808634.095951,,,,,,,0.49793368577957153,-0.13203124701976776,0.016254425048828125,0.22964800894260406,1.2990949153900146,-1.618095874786377
1764808634.103497,-1.1739556629426777,2.9357383945971725,-0.30342852780669927,0.6913766860961914,-0.09802194684743881,1.697339653968811,,,,,,
1764808634.105981,,,,,,,0.4834194779396057,-0.18902909755706787,0.014247775077819824,0.13572284579277039,1.15523362159729,-1.4971648454666138
1764808634.113549,-1.0984581580836326,3.0679233437746762,-0.13824030369371174,0.5991146564483643,-0.17042265832424164,1.569006323814392,,,,,,
1764808634.116011,,,,,,,0.45304930210113525,-0.21209362149238586,0.00014960765838623047,0.05532446503639221,1.0313977003097534,-1.363777995109558
1764808634.123601,-1.1136328577965497,3.037807606974244,-0.0369847457870841,0.5119485855102539,-0.22059421241283417,1.440420389175415,,,,,,
1764808634.12604,,,,,,,0.4442105293273926,-0.2041061669588089,-0.028448104858398438,0.027951166033744812,0.8762873411178589,-1.2336828708648682
1764808634.133654,-1.3073767297863959,2.955654224422574,0.0481648959711194,0.4181045591831207,-0.24790635704994202,1.2774395942687988,,,,,,
1764808634.136071,,,,,,,0.43772608041763306,-0.22086620330810547,-0.04398608207702637,0.006629273295402527,0.7566328048706055,-1.0743075609207153
1764808634.143706,-1.6209959583483635,3.199401021465659,0.29829847144186494,0.33425065875053406,-0.23357082903385162,1.0861847400665283,,,,,,
1764808634.146101,,,,,,,0.4560942053794861,-0.22809644043445587,-0.060768306255340576,0.020627645775675774,0.5968194603919983,-0.9058116674423218
1764808634.153758,-1.8378434964194892,3.310266703760624,0.3629872167125344,0.25216367840766907,-0.20537498593330383,0.8920254111289978,,,,,,
1764808634.156132,,,,,,,0.4926694631576538,-0.2359793782234192,-0.09339451789855957,0.024626124650239944,0.40920987725257874,-0.7374822497367859
1764808634.163811,-1.9835148268967866,3.1415918065756556,0.5285962965860963,0.1333390176296234,-0.19648854434490204,0.6751556396484375,,,,,,
1764808634.166162,,,,,,,0.5177028179168701,-0.24575088918209076,-0.11364048719406128,0.004072648007422686,0.2173730581998825,-0.5642135739326477
1764808634.173863,-2.0302558275446296,3.3082495187193155,0.6904153365269303,0.012918638065457344,-0.19026975333690643,0.4383069574832916,,,,,,
1764808634.176192,,,,,,,0.5188589096069336,-0.25740984082221985,-0.13662147521972656,-0.013604121282696724,0.04985649511218071,-0.39146146178245544
1764808634.183915,-1.8578136867806314,3.308761559894681,0.7813090748950838,-0.09994079917669296,-0.1999303698539734,0.2259821891784668,,,,,,
1764808634.186222,,,,,,,0.5162755846977234,-0.2684895992279053,-0.15569663047790527,-0.050970934331417084,-0.113090880215168,-0.21011513471603394
1764808634.193967,-1.7167612482756376,3.369254314780235,1.0976914845600723,-0.22230330109596252,-0.2234141230583191,0.017133131623268127,,,,,,
1764808634.196252,,,,,,,0.5280242562294006,-0.27191436290740967,-0.15502285957336426,-0.10466936230659485,-0.2816852033138275,-0.018601492047309875
