timestamp,phone_accel_x,phone_accel_y,phone_accel_z,phone_gyro_x,phone_gyro_y,phone_gyro_z,watch_accel_x,watch_accel_y,watch_accel_z,watch_gyro_x,watch_gyro_y,watch_gyro_z
1764808621.387296,-2.6892384994536638,1.9574498267918825,0.4307775812603533,1.5917452573776245,0.44738709926605225,1.8798108100891113,,,,,,
1764808621.38784,,,,,,,0.3431299924850464,-0.30362457036972046,0.15365934371948242,0.7620741128921509,0.7724086046218872,-2.319556474685669
1764808621.397348,-2.5770591042116284,1.7018191152095794,0.5167979414384812,1.487304925918579,0.4653007388114929,1.7390787601470947,,,,,,
1764808621.39787,,,,,,,0.3185417056083679,-0.32778793573379517,0.1755393147468567,0.7144691348075867,0.9303076863288879,-2.1653051376342773
1764808621.4074,-2.4160829448357224,2.031671831822395,0.6450934819620102,1.3975878953933716,0.47313523292541504,1.5704487562179565,,,,,,
1764808621.4079,,,,,,,0.3585011959075928,-0.35066330432891846,0.1690729260444641,0.6594796776771545,0.9506946802139282,-2.004730701446533
1764808621.417453,-2.228193644092977,2.5924206317335368,0.666170172260329,1.3627170324325562,0.44418105483055115,1.4203423261642456,,,,,,
1764808621.41793,,,,,,,0.4311527609825134,-0.38404542207717896,0.14783501625061035,0.5726408958435059,0.8195939660072327,-1.8916934728622437
1764808621.427505,-2.1404539858415723,2.894716648378968,0.6900771906137466,1.3679019212722778,0.3742328882217407,1.3042324781417847,,,,,,
1764808621.427961,,,,,,,0.4560396075248718,-0.394135057926178,0.14119768142700195,0.4906426966190338,0.7347370982170105,-1.7528927326202393
1764808621.437557,-2.1994383819907903,2.783444723370671,0.6660882661305367,1.3774569034576416,0.29501578211784363,1.209540605545044,,,,,,
1764808621.437991,,,,,,,0.4108637571334839,-0.39800840616226196,0.13437992334365845,0.41638344526290894,0.728492259979248,-1.5902823209762573
1764808621.44761,-2.361250699929893,2.3552228179425,0.6434077938973903,1.3690763711929321,0.23716869950294495,1.1078537702560425,,,,,,
1764808621.448021,,,,,,,0.3390965461730957,-0.4029626250267029,0.13557976484298706,0.33499935269355774,0.7502763867378235,-1.4377433061599731
1764808621.457662,-2.474961834783852,1.8201082255035639,0.7037561718761921,1.3314627408981323,0.19544202089309692,0.9895942211151123,,,,,,
1764808621.458051,,,,,,,0.279982328414917,-0.39957135915756226,0.13522177934646606,0.23334744572639465,0.8117408156394958,-1.3164950609207153
1764808621.467714,-2.4847762495726347,1.5295119990020989,0.9364356314599513,1.2691168785095215,0.15265068411827087,0.8590116500854492,,,,,,
1764808621.468081,,,,,,,0.25204914808273315,-0.382685124874115,0.13064342737197876,0.14689883589744568,0.9143127202987671,-1.1971147060394287
1764808621.477767,-2.4575156099423765,1.5912643985599277,1.0986673438549042,1.2178704738616943,0.11598428338766098,0.732535183429718,,,,,,
1764808621.478111,,,,,,,0.26445454359054565,-0.3602229952812195,0.11100274324417114,0.11957095563411713,0.9478070139884949,-1.0939322710037231
1764808621.487819,-2.4322405911713836,1.8814941298365593,1.1585469352781772,1.1928383111953735,0.0954962894320488,0.6395753026008606,,,,,,
1764808621.488141,,,,,,,0.29651081562042236,-0.33499521017074585,0.08427029848098755,0.1440235674381256,0.9175189137458801,-1.0398807525634766
1764808621.497871,-2.4203987622082233,2.2809482059419155,1.206026479333639,1.1758571863174438,0.08973506838083267,0.5921990275382996,,,,,,
1764808621.498171,,,,,,,0.3172242045402527,-0.2958417534828186,0.05838841199874878,0.19915008544921875,0.9091954827308655,-0.9872608184814453
1764808621.507924,-2.466406480145454,2.4351205305218695,1.1728227133899927,1.182163953781128,0.10253841429948807,0.5767805576324463,,,,,,
1764808621.508201,,,,,,,0.319984495639801,-0.2561641335487366,0.04144775867462158,0.27504780888557434,0.8981127142906189,-0.9128398299217224
1764808621.517976,-2.5900059718072415,2.2951240308105945,1.1003846691668033,1.206375241279602,0.14724516868591309,0.5573682188987732,,,,,,
1764808621.518231,,,,,,,0.3162171244621277,-0.2437402606010437,0.041049182415008545,0.3378673493862152,0.8797992467880249,-0.8637962341308594
1764808621.528029,-2.683207987117767,2.0447546007573605,1.1994488545089959,1.220935583114624,0.22926706075668335,0.527337908744812,,,,,,
1764808621.528261,,,,,,,0.2953118681907654,-0.24998730421066284,0.050795555114746094,0.36909982562065125,0.8840866684913635,-0.823626697063446
1764808621.538081,-2.7509856383144853,1.7487877871334552,1.3060153783053159,1.2290641069412231,0.34406715631484985,0.48018157482147217,,,,,,
1764808621.538291,,,,,,,0.2687346935272217,-0.25834769010543823,0.05487382411956787,0.37663865089416504,0.8856973052024841,-0.7935281991958618
1764808621.548133,-2.810762938407063,1.3669675673961639,1.3232266253471374,1.2179522514343262,0.46145471930503845,0.4326956868171692,,,,,,
1764808621.548321,,,,,,,0.23514366149902344,-0.26460880041122437,0.0426408052444458,0.36682623624801636,0.9029253125190735,-0.7735376954078674
1764808621.558186,-2.841394808036089,1.0548422306537628,1.3760644815653562,1.1793429851531982,0.5626580715179443,0.3832293450832367,,,,,,
1764808621.558351,,,,,,,0.2023598551750183,-0.266729474067688,0.023009181022644043,0.3776545524597168,0.9618213772773743,-0.7302511930465698
1764808621.568238,-2.7672569741576907,0.9275859700500965,1.43169050719738,1.12959623336792,0.6561485528945923,0.33681175112724304,,,,,,
1764808621.568381,,,,,,,0.18853741884231567,-0.2702350616455078,0.009280325844883919,0.4129678010940552,1.0145769119262695,-0.6768633127212524
1764808621.57829,-2.5840859341084954,0.998033717238903,1.4779466469377278,1.0777127742767334,0.7377774119377136,0.2887595593929291,,,,,,
1764808621.578411,,,,,,,0.19207757711410522,-0.2666833996772766,-0.011752009391784668,0.4456930458545685,1.040766716003418,-0.6436183452606201
1764808621.588343,-2.366806288230419,1.1549287447810173,1.517883520528674,1.0357518196105957,0.8008295893669128,0.24284479022026062,,,,,,
1764808621.588441,,,,,,,0.21363842487335205,-0.25623470544815063,-0.025864362716674805,0.4883781969547272,1.0368963479995728,-0.5897578001022339
1764808621.598395,-2.157869523283839,1.2511930702716112,1.505292919024825,1.0097036361694336,0.8406614065170288,0.20640766620635986,,,,,,
1764808621.598472,,,,,,,0.2373443841934204,-0.2528535723686218,-0.037659887224435806,0.5623770356178284,0.9855285882949829,-0.5144774913787842
1764808621.608447,-1.9949884070694446,1.2317688233554362,1.4269377597123383,0.993462860584259,0.8649007081985474,0.1753232479095459,,,,,,
1764808621.608502,,,,,,,0.24423611164093018,-0.25951629877090454,-0.03903985023498535,0.6340733170509338,0.9256473779678345,-0.44143736362457275
1764808621.6185,-1.8816554578781126,1.048539915639162,1.4171224681407213,0.9736223816871643,0.8717270493507385,0.1528531014919281,,,,,,
1764808621.618532,,,,,,,0.22225666046142578,-0.2687631845474243,-0.03745437040925026,0.6654321551322937,0.8879551291465759,-0.38387054204940796
1764808621.628552,-1.797203735256195,0.7696803041607141,1.5011848991841077,0.9397841691970825,0.8511110544204712,0.11620919406414032,,,,,,
1764808621.628562,,,,,,,0.1892445683479309,-0.2848306894302368,-0.04417729377746582,0.663914144039154,0.8755477666854858,-0.32538485527038574
1764808621.638592,,,,,,,0.16116559505462646,-0.3012281656265259,-0.04325723648071289,0.632720410823822,0.8853729367256165,-0.2657693922519684
1764808621.638604,-1.7532038500100373,0.5073737680763006,1.57425130443871,0.898280918598175,0.8160569667816162,0.06150813400745392,,,,,,
1764808621.648622,,,,,,,0.14476966857910156,-0.29135727882385254,-0.04558444023132324,0.5827070474624634,0.8895919322967529,-0.20707519352436066
1764808621.648657,-1.6777344752669334,0.37275603879392144,1.5845669467478989,0.8496444225311279,0.7828401327133179,-0.013500863686203957,,,,,,
1764808621.658652,,,,,,,0.13845288753509521,-0.2662985920906067,-0.053604841232299805,0.547630250453949,0.8878456950187683,-0.13852083683013916
1764808621.658709,-1.5377087494611739,0.3953378729581833,1.5609563540577887,0.7971434593200684,0.7412811517715454,-0.08419807255268097,,,,,,
1764808621.668682,,,,,,,0.14707422256469727,-0.24944156408309937,-0.061664581298828125,0.5437045097351074,0.8634753823280334,-0.07042087614536285
1764808621.668762,-1.3851649028658866,0.48511634356081484,1.4700842429995535,0.7578818202018738,0.7138833403587341,-0.13690096139907837,,,,,,
1764808621.678712,,,,,,,0.15526491403579712,-0.2469736933708191,-0.06917870044708252,0.5425487160682678,0.8198831677436829,-0.014190430752933025
1764808621.678814,-1.2460282348543406,0.5171610025972128,1.3817203153699635,0.7227537035942078,0.7003927826881409,-0.16888922452926636,,,,,,
1764808621.688742,,,,,,,0.15300250053405762,-0.23529142141342163,-0.07421326637268066,0.5301695466041565,0.799250066280365,0.03985229507088661
1764808621.688865,-1.1616080764144658,0.5251642763108014,1.40656892542243,0.6728801727294922,0.6976313591003418,-0.1982034295797348,,,,,,
1764808621.698772,,,,,,,0.15000635385513306,-0.2087106704711914,-0.0840156078338623,0.5280556678771973,0.7759074568748474,0.1042928695678711
1764808621.698919,-1.1066863996595144,0.5404390023320913,1.4166099885739385,0.6205271482467651,0.7019229531288147,-0.23004204034805298,,,,,,
1764808621.708802,,,,,,,0.14611530303955078,-0.1820141077041626,-0.09182548522949219,0.5450575351715088,0.7227827310562134,0.16073083877563477
1764808621.708971,-1.049489179188013,0.4682353513866663,1.3168002455614507,0.5773698091506958,0.7045549750328064,-0.25940337777137756,,,,,,
1764808621.718832,,,,,,,0.1358378529548645,-0.1660403609275818,-0.09507036209106445,0.580832839012146,0.6748295426368713,0.21884627640247345
1764808621.719023,-1.0106120437830686,0.3254308085173368,1.2458517092436552,0.5389525890350342,0.7038376331329346,-0.28431257605552673,,,,,,
1764808621.728862,,,,,,,0.11993628740310669,-0.17011034488677979,-0.0939100980758667,0.6119332313537598,0.642428994178772,0.2536247670650482
1764808621.729076,-0.9285609525620937,0.21902736632823944,1.2121544606946408,0.4870911240577698,0.7085530161857605,-0.3064905107021332,,,,,,
1764808621.738892,,,,,,,0.10234689712524414,-0.17588943243026733,-0.08421944826841354,0.5910165905952454,0.6166877150535583,0.2695951461791992
1764808621.739128,-0.8632090672075748,0.16499474736750125,1.1753810195706784,0.43466734886169434,0.7170743346214294,-0.33518287539482117,,,,,,
1764808621.748923,,,,,,,0.09198099374771118,-0.1644582748413086,-0.07630502432584763,0.5520867705345154,0.596844494342804,0.3065060079097748
1764808621.74918,-0.7910667910605669,0.13750176028609276,1.1380325550377368,0.3918738067150116,0.7154873609542847,-0.3728588819503784,,,,,,
1764808621.758953,,,,,,,0.08921712636947632,-0.15174025297164917,-0.07698214054107666,0.5300363898277283,0.5614409446716309,0.3562912046909332
1764808621.759233,-0.6993897933602332,0.0985042133718729,1.0637340507049113,0.35913005471229553,0.7081642746925354,-0.41224583983421326,,,,,,
1764808621.768983,,,,,,,0.08470571041107178,-0.14392954111099243,-0.08003270626068115,0.5113646984100342,0.5235047340393066,0.3897373378276825
1764808621.769285,-0.5594833100199699,0.07750000378787517,0.9785341400641947,0.32485276460647583,0.7009747624397278,-0.44221144914627075,,,,,,
1764808621.779013,,,,,,,0.07206642627716064,-0.13545948266983032,-0.08298349380493164,0.4916222095489502,0.5057151317596436,0.4223107695579529
1764808621.779337,-0.4147685496151447,0.04609539622068405,0.973510685878992,0.2804586887359619,0.6946284770965576,-0.46156489849090576,,,,,,
1764808621.789043,,,,,,,0.06491869688034058,-0.11584216356277466,-0.08665752410888672,0.4953556954860687,0.5049249529838562,0.46763885021209717
1764808621.78939,-0.293809343329072,0.011228665500879286,0.9876929404884576,0.2307843416929245,0.6788015961647034,-0.4775169789791107,,,,,,
1764808621.799073,,,,,,,0.06688058376312256,-0.09050321578979492,-0.09741485118865967,0.5396671295166016,0.49846863746643066,0.5104865431785583
1764808621.799442,-0.1637684204429388,0.05431845016479492,1.0291128191787748,0.17771202325820923,0.6529306769371033,-0.49152871966362,,,,,,
1764808621.809103,,,,,,,0.0780174732208252,-0.07067656517028809,-0.11231888085603714,0.6030995845794678,0.45038315653800964,0.5350491404533386
1764808621.809494,-0.06327975525557994,0.1416647251844406,1.0393372760731727,0.13192908465862274,0.6226931810379028,-0.49361157417297363,,,,,,
1764808621.819133,,,,,,,0.08714890480041504,-0.06132030487060547,-0.11417471617460251,0.6540514826774597,0.3775976300239563,0.5491860508918762
1764808621.819547,-0.015340192472934722,0.14831424620151518,0.9435527699887752,0.0924656093120575,0.5879040956497192,-0.4788276255130768,,,,,,
1764808621.829163,,,,,,,0.08634722232818604,-0.057188212871551514,-0.10557162761688232,0.6789522767066956,0.3252723515033722,0.5713749527931213
1764808621.829599,-0.03464052074849605,0.0916413418650627,0.8819622829943895,0.05316030606627464,0.5535352230072021,-0.4606170356273651,,,,,,
1764808621.839193,,,,,,,0.0694955587387085,-0.055071115493774414,-0.09279287606477737,0.675778865814209,0.2859715521335602,0.586247444152832
1764808621.839652,-0.13064941017329693,0.03589198211431503,0.8139076414871961,0.013864565640687943,0.5279949307441711,-0.44805437326431274,,,,,,
1764808621.849223,,,,,,,0.052082598209381104,-0.06037735939025879,-0.07690513134002686,0.6368789076805115,0.2584158480167389,0.5926198363304138
1764808621.849704,-0.22125731733739376,0.012219430103898048,0.6961287457376718,-0.01149641815572977,0.5136597752571106,-0.44855785369873047,,,,,,
1764808621.859253,,,,,,,0.04122734069824219,-0.07562088966369629,-0.05797279253602028,0.5703776478767395,0.23030510544776917,0.5868651866912842
1764808621.859756,-0.24668343501687048,0.009823474878072738,0.6027472822070121,-0.02144598588347435,0.5118794441223145,-0.45230865478515625,,,,,,
1764808621.869283,,,,,,,0.032208025455474854,-0.09137731790542603,-0.045920614153146744,0.4784649908542633,0.20871219038963318,0.5780178904533386
1764808621.869809,-0.25656360851824284,-0.0043324762463569635,0.5734750104933977,-0.02652660943567753,0.5077095031738281,-0.45452049374580383,,,,,,
1764808621.879313,,,,,,,0.02899223566055298,-0.08988797664642334,-0.03764570131897926,0.39439451694488525,0.1968107968568802,0.5846335887908936
1764808621.879861,-0.28287264651209115,-0.04177402589023113,0.5800169064175337,-0.04150129854679108,0.49514418840408325,-0.461751788854599,,,,,,
1764808621.889343,,,,,,,0.025533854961395264,-0.07737421989440918,-0.033512115478515625,0.3365565240383148,0.18940694630146027,0.5902171730995178
1764808621.889913,-0.29640637408494946,-0.05954115324914455,0.5735785439331084,-0.061736464500427246,0.47761422395706177,-0.47208505868911743,,,,,,
1764808621.899373,,,,,,,0.027552485466003418,-0.058212220668792725,-0.03927111625671387,0.30360403656959534,0.17987708747386932,0.5933660268783569
1764808621.899966,-0.2588923437267542,-0.019039631512761116,0.5180553210884332,-0.09141659736633301,0.4555771052837372,-0.48415398597717285,,,,,,
1764808621.909403,,,,,,,0.03671842813491821,-0.04247790575027466,-0.047574520111083984,0.30062395334243774,0.15165290236473083,0.6037235856056213
1764808621.910018,-0.1717573733702302,0.029611878931522367,0.4527724823821336,-0.12107675522565842,0.4228194057941437,-0.48811542987823486,,,,,,
1764808621.919434,,,,,,,0.04478299617767334,-0.04015141725540161,-0.04720759391784668,0.31596383452415466,0.11109215021133423,0.6128266453742981
1764808621.92007,-0.07430150000751018,0.04320142834484577,0.3529578074662015,-0.15546880662441254,0.3892366886138916,-0.4856506884098053,,,,,,
1764808621.929464,,,,,,,0.0490490198135376,-0.04247695207595825,-0.03589653968811035,0.31959453225135803,0.07049944996833801,0.6074116230010986
1764808621.930123,-3.711713999509811e-05,0.09111059598922729,0.2633037304282188,-0.18553514778614044,0.3601737916469574,-0.4808039665222168,,,,,,
1764808621.939494,,,,,,,0.043992578983306885,-0.03221285343170166,-0.020558353513479233,0.3004336953163147,0.04202334210276604,0.6026954054832458
1764808621.940175,0.009353519278764724,0.15698972008824347,0.14660802680552004,-0.19990822672843933,0.33251258730888367,-0.47270503640174866,,,,,,
1764808621.949524,,,,,,,0.03295224905014038,-0.018377482891082764,-0.002519126981496811,0.27173280715942383,0.01868179813027382,0.6086129546165466
1764808621.950227,0.013171908523142336,0.16550795758664608,0.04761106148064136,-0.19263364374637604,0.29778262972831726,-0.4609139859676361,,,,,,
1764808621.959554,,,,,,,0.02102595567703247,-0.015329360961914062,0.011852260679006577,0.2206597924232483,0.00776869710534811,0.6000152230262756
1764808621.96028,0.012249532981216907,0.1278361063182354,-0.03174363026320934,-0.17991839349269867,0.2638281285762787,-0.4450854957103729,,,,,,
1764808621.969584,,,,,,,0.005901932716369629,-0.015607833862304688,0.02490973100066185,0.15625523030757904,0.006568410433828831,0.5861244201660156
1764808621.970332,-0.0393090970814228,0.07112228544950484,-0.07785539309680461,-0.17256788909435272,0.237030029296875,-0.43004757165908813,,,,,,
1764808621.979614,,,,,,,-0.003146529197692871,-0.01646965742111206,0.03094470128417015,0.09562720358371735,0.010453696362674236,0.5669578313827515
1764808621.980384,-0.10750731177777051,-0.0019786065965890884,-0.12213698136117308,-0.17334099113941193,0.22444047033786774,-0.42437851428985596,,,,,,
1764808621.989644,,,,,,,-0.00471872091293335,-0.01606661081314087,0.030251380056142807,0.04359755665063858,0.01110350713133812,0.547032356262207
1764808621.990437,-0.12296937706470489,-0.03291559665203094,-0.1302495972007513,-0.17032863199710846,0.2152581661939621,-0.4267767667770386,,,,,,
1764808621.999674,,,,,,,-0.004074037075042725,-0.011103987693786621,0.02651965245604515,-6.120884791016579e-05,-0.0019233452621847391,0.5117985010147095
1764808622.000489,-0.10461597425043583,-0.06190846690237522,-0.1337438690572977,-0.16750063002109528,0.20271919667720795,-0.42670804262161255,,,,,,
1764808622.009704,,,,,,,-0.006321132183074951,-0.0006641149520874023,0.025574561208486557,-0.03556913509964943,-0.0140095679089427,0.48192107677459717
1764808622.010541,-0.06555939062535762,-0.08851590332090854,-0.1345545643856749,-0.16367828845977783,0.17634671926498413,-0.4171100854873657,,,,,,
1764808622.019734,,,,,,,-0.013397514820098877,0.013227522373199463,0.02853691577911377,-0.05228378251194954,-0.010698726400732994,0.46720635890960693
1764808622.020594,-0.04852291562855243,-0.155136785697937,-0.16262801823616027,-0.16169050335884094,0.14578667283058167,-0.40417537093162537,,,,,,
1764808622.029764,,,,,,,-0.023176729679107666,0.021450817584991455,0.03146028891205788,-0.05865619704127312,-0.001679133391007781,0.4523959755897522
1764808622.030646,-0.02454027475565672,-0.17534779907763004,-0.2480377722352743,-0.15501031279563904,0.12903332710266113,-0.3910299837589264,,,,,,
1764808622.039794,,,,,,,-0.03182411193847656,0.02247995138168335,0.035962820053100586,-0.054470598697662354,0.0077963937073946,0.4441485106945038
1764808622.040699,0.0079363459572196,-0.1851952393531799,-0.3459662315458059,-0.14135868847370148,0.1324075609445572,-0.3839550018310547,,,,,,
1764808622.049824,,,,,,,-0.03731006383895874,0.015696585178375244,0.0384448766708374,-0.04070977866649628,0.011797793209552765,0.43640244007110596
1764808622.050751,0.040485447384417055,-0.1911123544424772,-0.393559172847867,-0.12384786456823349,0.1459883451461792,-0.37735864520072937,,,,,,
1764808622.059854,,,,,,,-0.03996169567108154,0.01098412275314331,0.04088175296783447,-0.02246483974158764,0.018110815435647964,0.4299585819244385
1764808622.060803,0.059841889761388295,-0.226068517011404,-0.409559327066876,-0.10987494885921478,0.16249632835388184,-0.37211114168167114,,,,,,
1764808622.069884,,,,,,,-0.04335302114486694,0.01638132333755493,0.0373837947845459,-0.005603833589702845,0.03784297779202461,0.42908212542533875
1764808622.070856,0.054773500455915926,-0.2924760488986969,-0.3858428993821144,-0.10859449952840805,0.17610055208206177,-0.3706549406051636,,,,,,
1764808622.079915,,,,,,,-0.046026766300201416,0.026657819747924805,0.032657377421855927,0.02999833971261978,0.05697885528206825,0.43140795826911926
1764808622.080908,0.06535363892018795,-0.30690789435505866,-0.3592085749566555,-0.11188844591379166,0.1845284402370453,-0.3707444667816162,,,,,,
1764808622.089945,,,,,,,-0.042105257511138916,0.03887224197387695,0.027753829956054688,0.0763448029756546,0.07505185902118683,0.43039461970329285
1764808622.09096,0.09872545490711927,-0.2664244927972555,-0.3525380111515522,-0.11658759415149689,0.18303866684436798,-0.3691074252128601,,,,,,
1764808622.099975,,,,,,,-0.032424747943878174,0.047019124031066895,0.023853179067373276,0.12733863294124603,0.08509570360183716,0.4327518939971924
1764808622.101013,0.15331687679439782,-0.1868476827353239,-0.36586686380207534,-0.12581531703472137,0.1812712401151657,-0.3677203059196472,,,,,,
1764808622.110005,,,,,,,-0.01720905303955078,0.04525274038314819,0.027088161557912827,0.16141670942306519,0.07137349992990494,0.433155357837677
1764808622.111065,0.1832481969386339,-0.07897825964689255,-0.4158095465680584,-0.13044308125972748,0.18557250499725342,-0.36936986446380615,,,,,,
1764808622.120035,,,,,,,-0.007704019546508789,0.0376971960067749,0.03360939025878906,0.1702483892440796,0.05908887833356857,0.43010690808296204
1764808622.121117,0.1980029907390475,-0.02716097864806652,-0.44637364819049835,-0.12502385675907135,0.1940232813358307,-0.3652050197124481,,,,,,
1764808622.130065,,,,,,,-0.009149134159088135,0.030237019062042236,0.040581703186035156,0.17351050674915314,0.05707206577062607,0.43544840812683105
1764808622.13117,0.19213263740092515,-0.01626315253674984,-0.47663668450713154,-0.1136803850531578,0.20070913434028625,-0.35687732696533203,,,,,,
1764808622.140095,,,,,,,-0.018073618412017822,0.025237560272216797,0.043650027364492416,0.16350404918193817,0.07145366072654724,0.42980194091796875
1764808622.141222,0.19416589679419993,-0.009773205995559692,-0.412028310996294,-0.10618161410093307,0.1966860294342041,-0.3469458520412445,,,,,,
1764808622.150125,,,,,,,-0.02418839931488037,0.028232455253601074,0.0387653149664402,0.1510857343673706,0.09219436347484589,0.4228428304195404
1764808622.151274,0.19332418527305126,0.009205050718784332,-0.3311743206053972,-0.10289018601179123,0.1770244687795639,-0.33735567331314087,,,,,,
1764808622.160155,,,,,,,-0.017615854740142822,0.026362478733062744,0.03411388397216797,0.16118651628494263,0.09052456170320511,0.4131614565849304
1764808622.161327,0.17272183448821304,0.011126374170184136,-0.2947095070391893,-0.09747970849275589,0.1475249081850052,-0.33776766061782837,,,,,,
1764808622.170185,,,,,,,-0.007884681224822998,0.02011483907699585,0.03308069705963135,0.14822012186050415,0.07585693150758743,0.3843279182910919
1764808622.171379,0.15216595319360493,0.001664133819937706,-0.2646411165118217,-0.08878342062234879,0.12156840413808823,-0.33745846152305603,,,,,,
1764808622.180215,,,,,,,-0.006625235080718994,0.023750901222229004,0.038333769887685776,0.12624573707580566,0.07426223158836365,0.37632837891578674
1764808622.181431,0.133318044860661,0.005643558844923973,-0.2686480140656233,-0.07388941198587418,0.11461714655160904,-0.33485662937164307,,,,,,
1764808622.190245,,,,,,,-0.013309657573699951,0.02389979362487793,0.03839612007141113,0.13063037395477295,0.08327464014291763,0.382508248090744
1764808622.191484,0.11185527785420417,-0.009917582902312278,-0.2947182748675346,-0.055461931973695755,0.12117411941289902,-0.326122522354126,,,,,,
1764808622.200275,,,,,,,-0.022188305854797363,0.01765209436416626,0.030683394521474838,0.12941204011440277,0.10570697486400604,0.37052109837532043
1764808622.201536,0.06967150211930274,-0.03197685449719429,-0.2696650821536779,-0.04355397820472717,0.14330486953258514,-0.3134903311729431,,,,,,
1764808622.210305,,,,,,,-0.02672511339187622,0.018387556076049805,0.0270841121673584,0.1293952614068985,0.12532249093055725,0.36027804017066956
1764808622.211589,0.05610094966739416,-0.07052958025336264,-0.21173604027628898,-0.03999572992324829,0.16549885272979736,-0.3090159595012665,,,,,,
1764808622.220335,,,,,,,-0.024066030979156494,0.02549058198928833,0.020633339881896973,0.15644177794456482,0.1337314248085022,0.3652189373970032
1764808622.221641,0.00630728345066309,-0.12051496964991092,-0.18889058673977852,-0.03832379728555679,0.19552572071552277,-0.3068372309207916,,,,,,
1764808622.230365,,,,,,,-0.017210066318511963,0.032568156719207764,0.010021328926086426,0.19686616957187653,0.1379714459180832,0.3593043088912964
1764808622.231693,-0.01373597214668989,-0.11225392178297042,-0.16844167295098303,-0.042474064975976944,0.22152510285377502,-0.30226510763168335,,,,,,
1764808622.240396,,,,,,,-0.011560618877410889,0.034706830978393555,0.004126660525798798,0.24043621122837067,0.1460898220539093,0.3464433252811432
1764808622.241746,-0.0006327449455857276,-0.06048047992587089,-0.13221768240332601,-0.05299016833305359,0.23961873352527618,-0.29619038105010986,,,,,,
1764808622.250426,,,,,,,-0.004222989082336426,0.03167152404785156,0.006758924573659897,0.277148962020874,0.142674058675766,0.33854225277900696
1764808622.251798,0.041215222963690755,-0.017034136909246444,-0.11417934602075255,-0.06093437969684601,0.24376100301742554,-0.2902083992958069,,,,,,
1764808622.260456,,,,,,,0.0041182637214660645,0.03199893236160278,0.007476691156625748,0.30845922231674194,0.13364434242248535,0.33776241540908813
1764808622.26185,0.07802548896670342,0.07657645920217036,-0.1282195526778698,-0.06389912217855453,0.24165020883083344,-0.2809962034225464,,,,,,
1764808622.270486,,,,,,,0.01202017068862915,0.030681729316711426,0.0063135623931884766,0.34111517667770386,0.1229243129491806,0.3337032198905945
1764808622.271903,0.13264526016563177,0.14131576561629772,-0.1192880673366133,-0.05662510171532631,0.23540787398815155,-0.26850956678390503,,,,,,
1764808622.280516,,,,,,,0.014491379261016846,0.021430253982543945,0.00532352551817894,0.3446394205093384,0.11235982179641724,0.32457810640335083
1764808622.281955,0.15523235502690075,0.18483225125968455,-0.09274024301767349,-0.05150224268436432,0.2253592312335968,-0.2525779902935028,,,,,,
1764808622.290546,,,,,,,0.015397906303405762,0.011832118034362793,0.0076463185250759125,0.3239152133464813,0.1030302345752716,0.3164157569408417
1764808622.292007,0.15920651935487984,0.1577466759353876,-0.0331038035673555,-0.04993024468421936,0.2094675898551941,-0.2365945279598236,,,,,,
1764808622.300576,,,,,,,0.011946797370910645,0.004062861204147339,0.008631106466054916,0.28130990266799927,0.09750843048095703,0.3055706024169922
1764808622.30206,0.12874883724898098,0.1042640920728445,0.002384840176766738,-0.0511169508099556,0.19101373851299286,-0.22628143429756165,,,,,,
1764808622.310606,,,,,,,0.008699119091033936,-0.0002608299255371094,0.011155128479003906,0.20972758531570435,0.09158236533403397,0.2935221791267395
1764808622.312112,0.07846358812302351,0.09180500799417496,-0.008197344114119187,-0.04984787106513977,0.17010383307933807,-0.2216406613588333,,,,,,
1764808622.320636,,,,,,,0.007513880729675293,-0.0077855587005615234,0.012957576662302017,0.1588461846113205,0.08878099173307419,0.2727315425872803
1764808622.322164,0.03833148422092199,0.07098901445865631,-0.006067337214946746,-0.045915983617305756,0.14372281730175018,-0.21931280195713043,,,,,,
1764808622.330666,,,,,,,0.007490992546081543,-0.01311388611793518,0.01150500774383545,0.09802383929491043,0.08969684690237045,0.24038825929164886
1764808622.332217,0.04190086714029312,0.11656067906618117,0.04603810394234024,-0.050438154488801956,0.10236441344022751,-0.21704459190368652,,,,,,
1764808622.340696,,,,,,,0.013944029808044434,-0.004126638174057007,0.015297532081604004,0.033999964594841,0.07925406098365784,0.22507143020629883
1764808622.342269,0.057686465293169016,0.17711656231582162,0.08384847776545211,-0.04982243478298187,0.0510394386947155,-0.2138727754354477,,,,,,
1764808622.350726,,,,,,,0.026278555393218994,0.0023877322673797607,0.014203067868947983,0.002281447406858206,0.05427521467208862,0.21745611727237701
1764808622.352321,0.08446195175498723,0.2147930897593498,0.01665187785970047,-0.04180525988340378,0.008381396532058716,-0.20707809925079346,,,,,,
1764808622.360756,,,,,,,0.029597759246826172,-0.001149892807006836,0.010094873607158661,-0.01363598182797432,0.030320078134536743,0.2079668641090393
1764808622.362374,0.10645312654972076,0.25490999609231946,-0.042452637537848205,-0.029638342559337616,-0.015388382598757744,-0.19604595005512238,,,,,,
1764808622.370786,,,,,,,0.02558237314224243,-0.0026077628135681152,0.008148189634084702,-0.023717643693089485,0.024629700928926468,0.19867296516895294
1764808622.372426,0.11915595625638961,0.20511048465669154,-0.02105097133517265,-0.02391812950372696,-0.021573510020971298,-0.1814298778772354,,,,,,
1764808622.380816,,,,,,,0.017295241355895996,-0.003946870565414429,0.010451789945363998,-0.0333925299346447,0.023596927523612976,0.20319055020809174
1764808622.382479,0.09739449856430292,0.12357611078619957,0.006813187146186828,-0.027042552828788757,-0.012674291618168354,-0.17462150752544403,,,,,,
1764808622.390847,,,,,,,0.008526146411895752,-0.0017812848091125488,0.007600780576467514,-0.026636356487870216,0.02915707603096962,0.2075544148683548
1764808622.392531,0.027224691534042358,0.04960545016825199,-0.00011339724659919739,-0.02614016830921173,0.007029227912425995,-0.17034848034381866,,,,,,
1764808622.400877,,,,,,,0.002239525318145752,0.00034165382385253906,0.0033588409423828125,-0.005374937783926725,0.035201121121644974,0.2016526460647583
1764808622.402583,-0.04805938977003097,-0.01907119569480419,-0.01127190185440704,-0.027236860245466232,0.026769377291202545,-0.1715833991765976,,,,,,
1764808622.410907,,,,,,,-0.004931509494781494,0.008150577545166016,0.003412961959838867,0.015507441014051437,0.040744226425886154,0.1983892172574997
1764808622.412636,-0.09412146824300288,-0.07062193471193313,0.00587793385637924,-0.024596266448497772,0.04667419567704201,-0.17554180324077606,,,,,,
1764808622.420937,,,,,,,-0.010662734508514404,0.014793336391448975,0.00486147403717041,0.04113990440964699,0.04663220793008804,0.20044444501399994
1764808622.422688,-0.08996756343394517,-0.10267126992344856,-0.014745149189233779,-0.017752474173903465,0.06737814843654633,-0.17868459224700928,,,,,,
1764808622.430967,,,,,,,-0.01826876401901245,0.014922231435775757,0.006974462419748306,0.056655481457710266,0.05766674876213074,0.2004484385251999
1764808622.43274,-0.06399725587517023,-0.12145546537041664,-0.06731354081630707,-0.01449144072830677,0.09492208808660507,-0.1803571581840515,,,,,,
1764808622.440997,,,,,,,-0.02540767192840576,0.013098537921905518,0.009845856577157974,0.0515611506998539,0.07200679928064346,0.19329379498958588
1764808622.442793,0.009404372683167458,-0.09026479281485081,-0.1406956061576493,-0.012416571378707886,0.12249033153057098,-0.17821623384952545,,,,,,
1764808622.451027,,,,,,,-0.025480329990386963,0.016151398420333862,0.014883045107126236,0.03221648186445236,0.08307915925979614,0.19165435433387756
1764808622.452845,0.09210019154846667,-0.05399287147223949,-0.21151273464811965,-0.0033642365597188473,0.14355741441249847,-0.1747729778289795,,,,,,
1764808622.461057,,,,,,,-0.022089779376983643,0.021975785493850708,0.018795490264892578,0.011001638136804104,0.08897353708744049,0.17994548380374908
1764808622.462897,0.2042947843596339,-0.05591127231419086,-0.2591080505703576,0.010586732998490334,0.14250759780406952,-0.1715095341205597,,,,,,
1764808622.471087,,,,,,,-0.017700672149658203,0.030515581369400024,0.021762847900390625,-0.015622248873114586,0.08378143608570099,0.16222454607486725
1764808622.47295,0.35039018546789885,-0.0472784685254097,-0.23215570970429106,0.031286418437957764,0.11948775500059128,-0.15995700657367706,,,,,,
1764808622.481117,,,,,,,-0.017420589923858643,0.035822540521621704,0.025751590728759766,-0.036014623939991,0.0743890032172203,0.1439998745918274
1764808622.483002,0.43832682759612795,-0.07519055780172347,-0.2090472395837307,0.05284098535776138,0.08217880129814148,-0.14411215484142303,,,,,,
1764808622.491147,,,,,,,-0.024016380310058594,0.03742408752441406,0.025206685066223145,-0.04849952459335327,0.07566012442111969,0.11703083664178848
1764808622.493054,0.4314788613975048,-0.1442407131522894,-0.205085350215435,0.06455862522125244,0.05039849877357483,-0.12519733607769012,,,,,,
1764808622.501177,,,,,,,-0.03608214855194092,0.041491806507110596,0.01980448141694069,-0.06542544066905975,0.0852682814002037,0.09089730679988861
1764808622.503107,0.4150201862886548,-0.212881118658185,-0.23514263482689857,0.07230006158351898,0.029294626787304878,-0.10825705528259277,,,,,,
1764808622.511207,,,,,,,-0.04237455129623413,0.04883590340614319,0.01652204990386963,-0.08670143783092499,0.09474300593137741,0.06595733761787415
1764808622.513159,0.37745325669944285,-0.2463473349303007,-0.2810100857769139,0.08052310347557068,0.02279731258749962,-0.09578147530555725,,,,,,
1764808622.521237,,,,,,,-0.043891072273254395,0.05321049690246582,0.017148379236459732,-0.12869466841220856,0.09346948564052582,0.04295661300420761
1764808622.523211,0.3832128431394696,-0.2009206317514181,-0.3841431097269058,0.08788002282381058,0.034692831337451935,-0.08805806189775467,,,,,,
1764808622.531267,,,,,,,-0.0434911847114563,0.05805179476737976,0.023363955318927765,-0.21001721918582916,0.08947048336267471,0.01682168059051037
1764808622.533264,0.4377040195226669,-0.11002864694893359,-0.5216892936766148,0.1069442629814148,0.06041071191430092,-0.07648982107639313,,,,,,
1764808622.541297,,,,,,,-0.04229766130447388,0.05908319354057312,0.035167939960956573,-0.2928529381752014,0.08102240413427353,-0.013833899982273579
1764808622.543316,0.5046843828618526,-0.1035100588351488,-0.6318050343871117,0.13648635149002075,0.08275137841701508,-0.05752268061041832,,,,,,
1764808622.551328,,,,,,,-0.044226646423339844,0.06055697798728943,0.0403437577188015,-0.3779419958591461,0.07366915047168732,-0.0492723174393177
1764808622.553368,0.5831479709848761,-0.19918810887038707,-0.6478606816530227,0.1611080765724182,0.09104792773723602,-0.03548688814043999,,,,,,
1764808622.561358,,,,,,,-0.05382472276687622,0.07502621412277222,0.04861593246459961,-0.4388282299041748,0.07377221435308456,-0.07673143595457077
1764808622.563421,0.6793269562795757,-0.3299035700172186,-0.6460837351083755,0.1786191612482071,0.08472218364477158,-0.012528207153081894,,,,,,
1764808622.571388,,,,,,,-0.06656700372695923,0.09305036067962646,0.04820656776428223,-0.4513639807701111,0.07916963845491409,-0.1133408471941948
1764808622.573473,0.7652931751176715,-0.4221919776141643,-0.7091898873627185,0.1948700249195099,0.07972849160432816,0.010849552229046822,,,,,,
1764808622.581418,,,,,,,-0.07652801275253296,0.11156067252159119,0.04422556608915329,-0.44838765263557434,0.09382874518632889,-0.15943977236747742
1764808622.583526,0.8524638013094663,-0.4081722200900316,-0.7843722618579864,0.213088721036911,0.079609714448452,0.0403246209025383,,,,,,
1764808622.591448,,,,,,,-0.08610200881958008,0.13806775212287903,0.04128872603178024,-0.4718647301197052,0.10708755999803543,-0.2046155035495758
1764808622.593578,0.9519032497048378,-0.25620821920931336,-0.8514379653930664,0.23931589722633362,0.08332787454128265,0.07164657860994339,,,,,,
1764808622.601478,,,,,,,-0.08662980794906616,0.1557317078113556,0.04547429084777832,-0.5247954726219177,0.11593697965145111,-0.24724671244621277
1764808622.60363,1.0856129242315888,-0.15174129804074762,-0.96760233861804,0.2837240993976593,0.0928417444229126,0.10077916830778122,,,,,,
1764808622.611508,,,,,,,-0.0878189206123352,0.15831702947616577,0.05940794199705124,-0.6069158911705017,0.1362217515707016,-0.29777249693870544
1764808622.613683,1.2379340679869055,-0.17392215018868445,-1.0964286250174045,0.34205931425094604,0.11001620441675186,0.13092295825481415,,,,,,
1764808622.621538,,,,,,,-0.0918242335319519,0.1679362952709198,0.08201979845762253,-0.7046416997909546,0.15574590861797333,-0.37205755710601807
1764808622.623735,1.442446294489503,-0.15422785415947438,-1.1972411153316498,0.39785733819007874,0.1274878829717636,0.1695326715707779,,,,,,
1764808622.631568,,,,,,,-0.09455621242523193,0.2029840648174286,0.10407088696956635,-0.7996017336845398,0.19992350041866302,-0.4451584219932556
1764808622.633787,1.6528908336505292,-0.10284779553413391,-1.2249281636804341,0.46506965160369873,0.13984787464141846,0.22483506798744202,,,,,,
1764808622.641598,,,,,,,-0.09634596109390259,0.24572575092315674,0.10776674002408981,-0.8216086626052856,0.25093579292297363,-0.5159637928009033
1764808622.64384,1.7891738657966254,-0.035660511445999146,-1.33260235645771,0.5405540466308594,0.16126686334609985,0.29556047916412354,,,,,,
1764808622.651628,,,,,,,-0.09705710411071777,0.2768782079219818,0.10107850283384323,-0.8020538687705994,0.2919820547103882,-0.6046587824821472
1764808622.653892,1.857654112304747,0.12901274888217448,-1.4146505250692367,0.6034331321716309,0.20555244386196136,0.3803745210170746,,,,,,
1764808622.661658,,,,,,,-0.09370309114456177,0.3150019943714142,0.09650003165006638,-0.7720088958740234,0.3541226387023926,-0.6935176849365234
1764808622.663944,1.8917919442281126,0.2735270182788372,-1.4842086299419401,0.6590729355812073,0.26766589283943176,0.46790197491645813,,,,,,
1764808622.671688,,,,,,,-0.08225160837173462,0.3580423593521118,0.09107567369937897,-0.649047315120697,0.4024837911128998,-0.7681980729103088
1764808622.673997,1.9087077154546974,0.3083984251737594,-1.5894652401834726,0.7222500443458557,0.33231544494628906,0.5495452284812927,,,,,,
1764808622.681718,,,,,,,-0.07093960046768188,0.3894452452659607,0.0868382602930069,-0.4907994568347931,0.42909517884254456,-0.8418866991996765
1764808622.684049,2.0222125140815974,0.2566781748086214,-1.595785090854764,0.7783730030059814,0.3889310657978058,0.6294787526130676,,,,,,
1764808622.691748,,,,,,,-0.07285994291305542,0.4102257490158081,0.10257220268249512,-0.3593178689479828,0.4724258482456207,-0.9420756101608276
1764808622.694101,2.176988357512653,0.21745266435742377,-1.6512462813138962,0.8405311703681946,0.45278170704841614,0.7208816409111023,,,,,,
1764808622.701779,,,,,,,-0.08772987127304077,0.4202283024787903,0.13451240956783295,-0.2958884835243225,0.5501062870025635,-1.0507012605667114
1764808622.704154,2.2831918932154776,0.3245002496689558,-1.7735826211720704,0.9200572967529297,0.5392143726348877,0.8167092800140381,,,,,,
1764808622.711809,,,,,,,-0.09773582220077515,0.41565364599227905,0.1650322526693344,-0.2979191243648529,0.6413373947143555,-1.1712287664413452
1764808622.714206,2.374205166310072,0.614939239782095,-1.9577485174775122,1.0212934017181396,0.6388635039329529,0.9055144190788269,,,,,,
1764808622.721838,,,,,,,-0.09779387712478638,0.42838239669799805,0.2021394819021225,-0.3810998201370239,0.7560200095176697,-1.3160643577575684
1764808622.724259,2.5810271310597654,0.9435732282549142,-2.08246561499238,1.1550360918045044,0.7056078910827637,1.011549472808838,,,,,,
1764808622.731869,,,,,,,-0.08490782976150513,0.4807974100112915,0.22819960117340088,-0.44885116815567017,0.8569583296775818,-1.447888970375061
1764808622.734311,2.920757683086395,1.086765309137106,-2.131297158178687,1.292141318321228,0.7192063927650452,1.1427417993545532,,,,,,
1764808622.741899,,,,,,,-0.05650204420089722,0.5313151478767395,0.2161710113286972,-0.45679691433906555,0.9107670187950134,-1.5965665578842163
1764808622.744363,3.3059251674249768,1.021510454416275,-2.0610808816581963,1.3932369947433472,0.6910400390625,1.2885382175445557,,,,,,
1764808622.751929,,,,,,,-0.03241521120071411,0.564784049987793,0.19093775749206543,-0.4333682954311371,0.9631559252738953,-1.791296362876892
1764808622.754416,3.7252158706396816,0.8421949207514524,-1.860453679895401,1.45553719997406,0.6217029690742493,1.4417364597320557,,,,,,
1764808622.761959,,,,,,,-0.022708237171173096,0.5932113528251648,0.15765917301177979,-0.4026809334754944,1.0251941680908203,-1.9994498491287231
1764808622.764468,4.101058769533038,0.6934528045266867,-1.6167670886069536,1.504048466682434,0.5187139511108398,1.6130586862564087,,,,,,
1764808622.771989,,,,,,,-0.019031643867492676,0.6176085472106934,0.1410132497549057,-0.3340182602405548,1.0876597166061401,-2.190217971801758
1764808622.77452,4.337341806566715,0.672948361158371,-1.530641441423446,1.548054814338684,0.41921305656433105,1.8175619840621948,,,,,,
1764808622.782019,,,,,,,-0.01734226942062378,0.6344336867332458,0.1561926305294037,-0.2740185260772705,1.1688905954360962,-2.3766825199127197
1764808622.784573,4.350843093174696,0.9059387863874435,-1.7321312513649463,1.6079285144805908,0.3619129955768585,2.031921148300171,,,,,,
1764808622.792049,,,,,,,-0.007708251476287842,0.6511635780334473,0.20053398609161377,-0.24073486030101776,1.2631537914276123,-2.5509746074676514
1764808622.794625,4.1397292764499785,1.3227064008653162,-2.1115603381820023,1.7089112997055054,0.37353286147117615,2.2216339111328125,,,,,,
1764808622.802079,,,,,,,0.013224899768829346,0.6563854813575745,0.25198161602020264,-0.24047213792800903,1.3591744899749756,-2.6942076683044434
1764808622.804677,3.905356164690852,1.6833447163641453,-2.4390676607124506,1.8365545272827148,0.435296893119812,2.3778181076049805,,,,,,
1764808622.812109,,,,,,,0.04492950439453125,0.6462072134017944,0.2942712604999542,-0.2575951814651489,1.4321467876434326,-2.841806411743164
1764808622.81473,3.8019407984018323,1.8485154048204422,-2.5902111389905214,1.9598298072814941,0.48579147458076477,2.515491485595703,,,,,,
1764808622.822139,,,,,,,0.06733375787734985,0.6411710977554321,0.3276277780532837,-0.27979567646980286,1.5401874780654907,-2.98124361038208
1764808622.824782,3.8438884272933005,1.8273077816188334,-2.542202018103003,2.077575445175171,0.5081276893615723,2.6550469398498535,,,,,,
1764808622.832169,,,,,,,0.09102404117584229,0.63099205493927,0.3223615884780884,-0.2494095414876938,1.6501528024673462,-3.1099843978881836
1764808622.834834,3.9386622219651937,1.8283301104038954,-2.2963719850450754,2.172088384628296,0.5032654404640198,2.8097386360168457,,,,,,
1764808622.842199,,,,,,,0.12201613187789917,0.6127942204475403,0.3013543486595154,-0.20551663637161255,1.7481553554534912,-3.2475314140319824
1764808622.844887,3.950359089499712,1.9045482576876878,-2.0094868880212307,2.2266366481781006,0.4949539601802826,2.9609148502349854,,,,,,
1764808622.85223,,,,,,,0.15641570091247559,0.6127922534942627,0.29011470079421997,-0.1751350313425064,1.8606051206588745,-3.388793468475342
1764808622.854939,3.8428473938077685,2.061887521865964,-1.9252765729397534,2.2613494396209717,0.4934384524822235,3.097010850906372,,,,,,
1764808622.86226,,,,,,,0.20275652408599854,0.6358893513679504,0.2918888330459595,-0.12161744385957718,1.958188772201538,-3.5084316730499268
1764808622.864991,3.7397716347366567,2.3030852189481257,-1.9053955221667884,2.3065690994262695,0.48260629177093506,3.2287724018096924,,,,,,
1764808622.87229,,,,,,,0.25850754976272583,0.6334038376808167,0.28865453600883484,-0.06042945757508278,2.0084733963012695,-3.6076505184173584
1764808622.875044,3.6581647801518438,2.621616331079602,-1.8972598542451857,2.3600118160247803,0.45011135935783386,3.3658576011657715,,,,,,
1764808622.88232,,,,,,,0.29758843779563904,0.5930176377296448,0.31709036231040955,-0.0251336470246315,2.0764875411987305,-3.700195789337158
1764808622.885096,3.472184527900815,2.8286563224941492,-2.0002698546037077,2.4225924015045166,0.4369593560695648,3.49472713470459,,,,,,
1764808622.89235,,,,,,,0.31575876474380493,0.5463642477989197,0.35184887051582336,-0.003783883061259985,2.176461935043335,-3.7703540325164795
1764808622.895149,3.2239749062299725,2.9471394940555093,-2.094884951582551,2.4847939014434814,0.4528367519378662,3.5929794311523438,,,,,,
1764808622.90238,,,,,,,0.3382316827774048,0.5134190320968628,0.364978551864624,0.03891390934586525,2.2655386924743652,-3.8263721466064453
1764808622.905201,2.9793016419917344,3.0479858866393563,-2.09563255507946,2.536633253097534,0.4837781488895416,3.6753995418548584,,,,,,
1764808622.91241,,,,,,,0.37323570251464844,0.495719313621521,0.3584376573562622,0.06762172281742096,2.32595157623291,-3.8854141235351562
1764808622.915253,2.7576638009041545,3.191258047020435,-1.982449243491888,2.558175802230835,0.505847156047821,3.7454419136047363,,,,,,
1764808622.92244,,,,,,,0.4184836149215698,0.47910618782043457,0.34019216895103455,0.13531926274299622,2.37176513671875,-3.919682264328003
1764808622.925306,2.5002111345916984,3.299182999688387,-1.8337647026732562,2.560199499130249,0.5023413896560669,3.8042869567871094,,,,,,
1764808622.93247,,,,,,,0.4615926146507263,0.45218175649642944,0.33015578985214233,0.1913047581911087,2.389721155166626,-3.9549460411071777
1764808622.935358,2.2417846548110245,3.38653395088315,-1.8374252710074186,2.560042142868042,0.4968390464782715,3.8500266075134277,,,,,,
1764808622.9425,,,,,,,0.48918330669403076,0.4415764808654785,0.3493821918964386,0.21801233291625977,2.4071502685546875,-3.9886884689331055
1764808622.94541,2.0833377216517923,3.5156697416231033,-1.9494640887349843,2.57078218460083,0.5005044341087341,3.8767576217651367,,,,,,
1764808622.95253,,,,,,,0.5045700669288635,0.42554134130477905,0.3679378926753998,0.23905929923057556,2.444507122039795,-3.9945271015167236
1764808622.955463,2.0904916850596664,3.6179984817191957,-2.0263377773180604,2.595792055130005,0.506195604801178,3.90801739692688,,,,,,
1764808622.96256,,,,,,,0.512574315071106,0.38272619247436523,0.3768751323223114,0.21368829905986786,2.4975368976593018,-4.018456935882568
1764808622.965515,2.1247458368390797,3.8080373617112633,-1.9012126835241914,2.635653495788574,0.49893489480018616,3.9493348598480225,,,,,,
1764808622.97259,,,,,,,0.5269558429718018,0.33637261390686035,0.3912767469882965,0.16694796085357666,2.5700316429138184,-4.022904396057129
1764808622.975567,2.0618296541988848,4.079468576754629,-1.6593977313265202,2.6698312759399414,0.4757688641548157,4.001517295837402,,,,,,
1764808622.98262,,,,,,,0.5548179149627686,0.3066580891609192,0.3933431804180145,0.1482338011264801,2.6347784996032715,-4.017432689666748
1764808622.98562,1.9163836569100616,4.363776516766846,-1.5145108292251825,2.6971895694732666,0.4289078712463379,4.056987762451172,,,,,,
1764808622.99265,,,,,,,0.5863221287727356,0.3128221035003662,0.4018203914165497,0.1366245597600937,2.6908984184265137,-4.017035961151123
1764808622.995672,1.820993776166439,4.642164126819372,-1.5791089736029504,2.722870349884033,0.35803744196891785,4.100107669830322,,,,,,
1764808623.002681,,,,,,,0.626356303691864,0.32665109634399414,0.40853896737098694,0.12896811962127686,2.6959924697875977,-4.009219169616699
1764808623.005725,1.7906150045156477,4.79599450609386,-1.792504179263115,2.7328405380249023,0.2379751354455948,4.13405704498291,,,,,,
1764808623.012711,,,,,,,0.6572723984718323,0.30229926109313965,0.3960849940776825,0.1038137674331665,2.687819004058838,-4.00399112701416
1764808623.015777,1.6976187409102916,4.740103107523918,-1.8951731110990047,2.723513603210449,0.07929148524999619,4.149478912353516,,,,,,
1764808623.022741,,,,,,,0.6622389554977417,0.2501521110534668,0.3876594305038452,-0.0092946607619524,2.6656956672668457,-4.032190799713135
1764808623.025829,1.3861831399977207,4.5766012290626765,-2.009118639230728,2.710075616836548,-0.04982626065611839,4.12908935546875,,,,,,
1764808623.032771,,,,,,,0.6487199068069458,0.20231300592422485,0.4117772579193115,-0.23360764980316162,2.6671838760375977,-4.060519695281982
1764808623.035882,0.916020035418868,4.548177683132887,-2.3164333608210086,2.740297317504883,-0.1201678067445755,4.0742692947387695,,,,,,
1764808623.042801,,,,,,,0.638434648513794,0.16217732429504395,0.4719911515712738,-0.5017048716545105,2.730346918106079,-4.0279622077941895
1764808623.045934,0.6644412295758724,4.838128889729083,-2.575370128211379,2.8260655403137207,-0.15368245542049408,4.036168575286865,,,,,,
1764808623.052831,,,,,,,0.6423428058624268,0.13945746421813965,0.5135526657104492,-0.7323641777038574,2.7882132530212402,-4.007090091705322
1764808623.055986,0.6459183154135942,5.30036558522284,-2.62958336443603,2.948258399963379,-0.1883581429719925,4.033203601837158,,,,,,
1764808623.062861,,,,,,,0.6424946784973145,0.1551317572593689,0.5533686876296997,-0.8649026155471802,2.940093994140625,-3.9594075679779053
1764808623.066039,0.6727081226617098,5.644133429941535,-2.3907892213642596,3.073399066925049,-0.22473958134651184,4.065342426300049,,,,,,
1764808623.07289,,,,,,,0.6392779350280762,0.1858997344970703,0.5089292526245117,-0.8416351079940796,3.07173752784729,-3.892094373703003
1764808623.076091,0.48057928465306754,5.665034179151058,-1.9020403665199874,3.161815881729126,-0.23536346852779388,4.102917194366455,,,,,,
1764808623.08292,,,,,,,0.6477752923965454,0.19345766305923462,0.4185197055339813,-0.791477620601654,3.1619222164154053,-3.8771681785583496
1764808623.086143,-0.03846446295082569,5.309295326131582,-1.3169096972852945,3.183926820755005,-0.2192549854516983,4.098392009735107,,,,,,
1764808623.09295,,,,,,,0.6654395461082458,0.18170857429504395,0.3498465120792389,-0.6598722338676453,3.220384120941162,-3.8156325817108154
1764808623.096196,-0.5855091471582651,4.735774722930788,-0.9577747720867394,3.1503329277038574,-0.19632087647914886,4.042018413543701,,,,,,
1764808623.10298,,,,,,,0.6771600246429443,0.1698961853981018,0.31067460775375366,-0.39554259181022644,3.2474310398101807,-3.730334520339966
1764808623.106248,-0.9148737879931926,4.047871661485732,-0.9539210192680359,3.0874369144439697,-0.15468502044677734,3.9511144161224365,,,,,,
1764808623.11301,,,,,,,0.6559634208679199,0.1828930377960205,0.2698921263217926,-0.12561285495758057,3.2802865505218506,-3.6879732608795166
1764808623.1163,-1.0716045648843049,3.621813363832235,-0.9440627653375268,3.0154051780700684,-0.07749036699533463,3.855206251144409,,,,,,
1764808623.12304,,,,,,,0.6392499208450317,0.17650306224822998,0.24765479564666748,0.025220852345228195,3.2913577556610107,-3.6542155742645264
1764808623.126353,-1.1222843662858009,3.73726637391746,-0.8844196130186319,2.946171760559082,0.04284651577472687,3.7733280658721924,,,,,,
1764808623.13307,,,,,,,0.6651701927185059,0.10041779279708862,0.2623598873615265,0.0174806397408247,3.281306266784668,-3.5716354846954346
1764808623.136405,-1.132584226503968,4.190664513917267,-0.9314780090525746,2.914741277694702,0.17795613408088684,3.702812433242798,,,,,,
1764808623.1431,,,,,,,0.7107474207878113,0.006015121936798096,0.2612146735191345,-0.06577424705028534,3.243755578994751,-3.453425884246826
1764808623.146457,-1.0807698681145905,4.553360346467793,-0.9740949155077337,2.9095489978790283,0.289101779460907,3.6377570629119873,,,,,,
1764808623.153131,,,,,,,0.7216498851776123,-0.051918983459472656,0.24161648750305176,-0.1530526876449585,3.200449228286743,-3.3278791904449463
1764808623.15651,-0.9963824429005383,4.511528160649537,-0.7464689399212598,2.8936617374420166,0.3151853084564209,3.56103253364563,,,,,,
1764808623.163161,,,,,,,0.6863120794296265,-0.05419731140136719,0.22285068035125732,-0.23234398663043976,3.1766374111175537,-3.2049057483673096
1764808623.166562,-0.8703922567099333,4.164822508913279,-0.45625557525753974,2.852972984313965,0.2541411221027374,3.457380771636963,,,,,,
1764808623.173191,,,,,,,0.6458560824394226,-0.03491133451461792,0.21111629903316498,-0.2520948052406311,3.1369287967681885,-3.092327117919922
1764808623.176615,-0.6526666206300258,3.7754911828935143,-0.35190789655447,2.803720712661743,0.1372646689414978,3.3281352519989014,,,,,,
1764808623.183221,,,,,,,0.6202616691589355,-0.029290378093719482,0.21461452543735504,-0.22898755967617035,3.094076633453369,-2.9755172729492188
1764808623.186667,-0.38868952098488807,3.525301201060414,-0.3623544717669487,2.753307819366455,0.02110397443175316,3.1882834434509277,,,,,,
1764808623.193251,,,,,,,0.5977139472961426,-0.016146481037139893,0.21467244625091553,-0.210761159658432,3.0838449001312256,-2.853445529937744
1764808623.196719,-0.16974457224309444,3.6192584186524153,-0.4607812359884381,2.6966261863708496,-0.029481882229447365,3.0621442794799805,,,,,,
1764808623.203281,,,,,,,0.5916789770126343,-0.01888197660446167,0.16991211473941803,-0.1634780615568161,3.026054859161377,-2.7040317058563232
1764808623.206772,-0.13167173895835876,3.80770769136548,-0.44446810683012006,2.6435303688049316,-0.010968119837343693,2.9638800621032715,,,,,,
1764808623.213311,,,,,,,0.5818304419517517,-0.04187726974487305,0.14240384101867676,-0.18940526247024536,2.963667154312134,-2.599081516265869
1764808623.216824,-0.32962826020717617,3.74746861898005,-0.2572919227927923,2.6084144115448,0.013205138966441154,2.8684074878692627,,,,,,
1764808623.223341,,,,,,,0.5556668043136597,-0.058410584926605225,0.14476680755615234,-0.2650647461414337,2.9693949222564697,-2.4621074199676514
1764808623.226876,-0.619030893009901,3.5983395492643115,0.03589066694006324,2.5910050868988037,0.009930516593158245,2.763556718826294,,,,,,
1764808623.233371,,,,,,,0.5430722236633301,-0.06828027963638306,0.13440203666687012,-0.30752459168434143,2.936306953430176,-2.3542251586914062
1764808623.236929,-0.8336807749062776,3.474309849491715,0.2771580682575703,2.5731372833251953,0.00039718637708574533,2.6565730571746826,,,,,,
1764808623.243401,,,,,,,0.5321809649467468,-0.02616351842880249,0.12822723388671875,-0.3149482309818268,2.9099016189575195,-2.286990165710449
1764808623.246981,-0.908498407742381,3.3568460841059684,0.33271322061046954,2.5395421981811523,0.01008363626897335,2.5566189289093018,,,,,,
1764808623.253431,,,,,,,0.517751157283783,0.0369625985622406,0.0936049222946167,-0.2250838428735733,2.847515344619751,-2.199554920196533
1764808623.257033,-0.8650672622948884,3.264385242551565,0.29559622674584385,2.479466199874878,0.047691747546195984,2.480959892272949,,,,,,
1764808623.263461,,,,,,,0.5110680460929871,0.052009791135787964,0.05244249105453491,-0.1192905381321907,2.777228832244873,-2.126199960708618
1764808623.267086,-0.7348685184985398,3.0815999869495627,0.3206482504159212,2.3923490047454834,0.124033123254776,2.4172725677490234,,,,,,
1764808623.273491,,,,,,,0.4976899027824402,0.044955313205718994,0.032798882573843,-0.04402214288711548,2.739922523498535,-2.040668249130249
1764808623.277138,-0.6490992835372686,3.0058851130127904,0.4622773197650909,2.296818256378174,0.20967824757099152,2.3527963161468506,,,,,,
1764808623.283521,,,,,,,0.49438542127609253,0.02446761727333069,0.02853000909090042,0.0424993596971035,2.652704954147339,-1.9396743774414062
1764808623.287191,-0.5874380693942308,2.9283734187871215,0.4956272527137771,2.211604356765747,0.27438268065452576,2.284661054611206,,,,,,
1764808623.293551,,,,,,,0.4744236469268799,-0.0038889050483703613,0.03354769945144653,0.16539651155471802,2.5680954456329346,-1.8530473709106445
1764808623.297243,-0.5850941366165876,2.663114462637901,0.4168383416265249,2.1335842609405518,0.2811155915260315,2.210421085357666,,,,,,
1764808623.303582,,,,,,,0.4245779514312744,0.004614204168319702,0.029870159924030304,0.21942627429962158,2.4801177978515625,-1.8130121231079102
1764808623.307295,-0.5751046575218439,2.449665188702941,0.25373510709404945,2.0796780586242676,0.27010634541511536,2.1177914142608643,,,,,,
1764808623.313612,,,,,,,0.3905853033065796,-0.004250675439834595,0.04249262809753418,0.1252949982881546,2.3774824142456055,-1.7952462434768677
1764808623.317348,-0.5045657249182463,2.3535060771524905,-0.05149754752516746,2.053591728210449,0.25675898790359497,2.0274102687835693,,,,,,
1764808623.323642,,,,,,,0.3802606463432312,-0.06968504190444946,0.056525662541389465,-0.09305690228939056,2.3221194744110107,-1.7556366920471191
1764808623.3274,-0.35708705275803804,2.3985049103081226,-0.03583822436677292,1.9971973896026611,0.1928359419107437,1.9663993120193481,,,,,,
1764808623.333672,,,,,,,0.39007019996643066,-0.10065379738807678,0.05215209722518921,-0.28226542472839355,2.2229201793670654,-1.7192301750183105
1764808623.337452,-0.20145371571481227,2.4434102199614047,0.1737199056148529,1.8982064723968506,0.07438089698553085,1.929735779762268,,,,,,
1764808623.343702,,,,,,,0.40926992893218994,-0.049001544713974,0.05498480796813965,-0.39553338289260864,2.1229894161224365,-1.6729605197906494
1764808623.347505,-0.09248334564715624,2.5353251180708405,0.08113748350739479,1.7877197265625,-0.02214750088751316,1.908658742904663,,,,,,
1764808623.353732,,,,,,,0.40992867946624756,-0.0004227757453918457,0.0221366286277771,-0.39898961782455444,1.970545768737793,-1.622309923171997
1764808623.357557,-0.0706993838623166,2.431945407617092,-0.15535663899369537,1.682529330253601,-0.077204629778862,1.8743427991867065,,,,,,
1764808623.363762,,,,,,,0.3757457137107849,0.0024102330207824707,0.019348740577697754,-0.37432926893234253,1.8692394495010376,-1.608476996421814
1764808623.367609,-0.09029080403894185,2.123814693468809,-0.1646399425804615,1.5717829465866089,-0.1132078617811203,1.829757571220398,,,,,,
1764808623.373792,,,,,,,0.329714834690094,0.035439372062683105,0.019155234098434448,-0.3367038667201996,1.809136152267456,-1.5870311260223389
1764808623.377662,-0.20310557457506656,2.198964919260144,-0.00422828521952033,1.4581563472747803,-0.13389796018600464,1.805181622505188,,,,,,
1764808623.383822,,,,,,,0.34695857763290405,0.04675200581550598,0.0025916993618011475,-0.2741875648498535,1.6935149431228638,-1.5682600736618042
1764808623.387714,-0.38045477660298344,2.4981343283176423,0.1424633282162249,1.3563969135284424,-0.12190279364585876,1.793066143989563,,,,,,
1764808623.393852,,,,,,,0.3872225880622864,0.01219487190246582,-0.01489347219467163,-0.26291948556900024,1.618037223815918,-1.531972885131836
1764808623.397766,-0.6842065450146794,2.8531676634162664,0.3249659674845636,1.2615810632705688,-0.09010447561740875,1.7674696445465088,,,,,,
1764808623.403882,,,,,,,0.42198342084884644,-0.02346828579902649,-0.033971428871154785,-0.2464406043291092,1.5393813848495483,-1.4789031744003296
1764808623.407819,-1.0430798966675996,3.1582693851321935,0.5981529401540756,1.1638680696487427,-0.07649891823530197,1.7207772731781006,,,,,,
1764808623.413912,,,,,,,0.4559705853462219,-0.04040566086769104,-0.03960585594177246,-0.2447252720594406,1.400311827659607,-1.4766792058944702
1764808623.417871,-1.2740990218237043,3.2494454475730654,0.628801760917902,1.0602537393569946,-0.10618650168180466,1.6528160572052002,,,,,,
1764808623.423942,,,,,,,0.4733019471168518,-0.01642817258834839,-0.057129502296447754,-0.21304932236671448,1.2821614742279053,-1.454866886138916
1764808623.427923,-1.3194272330641745,3.3101685040831565,0.5553880035303532,0.9423503875732422,-0.17957083880901337,1.5852878093719482,,,,,,
1764808623.433973,,,,,,,0.48756879568099976,-0.007747143507003784,-0.07045599818229675,-0.1663459986448288,1.1239804029464722,-1.4264960289001465
1764808623.437976,-1.2355804905980825,3.3898072734653946,0.5320495057798922,0.821630597114563,-0.22299635410308838,1.50493323802948,,,,,,
1764808623.444002,,,,,,,0.5005850195884705,-0.04022814333438873,-0.06646081805229187,-0.19010350108146667,1.0209147930145264,-1.3846865892410278
1764808623.448028,-1.0975602593958378,3.6798628172188996,0.528024341917038,0.7089601755142212,-0.20518645644187927,1.422285556793213,,,,,,
1764808623.454033,,,,,,,0.5283787250518799,-0.11251747608184814,-0.08043044805526733,-0.2693820595741272,0.8949904441833496,-1.269519567489624
1764808623.458081,-1.083299971114099,4.051979389065504,0.6889001096583902,0.6015895009040833,-0.19569441676139832,1.341058373451233,,,,,,
1764808623.464063,,,,,,,0.5664563775062561,-0.18459206819534302,-0.09984266757965088,-0.34757280349731445,0.737229585647583,-1.15872061252594
1764808623.468133,-1.2459089923888444,4.022970736724138,0.893684869492054,0.4825463891029358,-0.25528812408447266,1.2409977912902832,,,,,,
1764808623.474093,,,,,,,0.5710312128067017,-0.19952742755413055,-0.11559271812438965,-0.3567740023136139,0.6111357808113098,-1.0446350574493408
1764808623.478185,-1.5509458321750162,3.824272457197308,0.9380825218841433,0.3538944125175476,-0.3319711685180664,1.1037662029266357,,,,,,
1764808623.484123,,,,,,,0.5570846796035767,-0.16478775441646576,-0.11558830738067627,-0.2914053797721863,0.4693131446838379,-0.929604172706604
1764808623.488238,-1.8688626118004321,3.8412832132309673,0.9169042709074914,0.2283298224210739,-0.34862735867500305,0.9429744482040405,,,,,,
1764808623.494153,,,,,,,0.5657442212104797,-0.15146204829216003,-0.11225804686546326,-0.2133001834154129,0.3281719982624054,-0.8080028891563416
1764808623.49829,-2.107962459820509,4.091504174724221,0.8669929696604609,0.14115497469902039,-0.2881461977958679,0.7798241376876831,,,,,,
1764808623.504183,,,,,,,0.5863158702850342,-0.18953342735767365,-0.11922040581703186,-0.1528961956501007,0.21408165991306305,-0.6725186705589294
1764808623.508342,-2.2294833916425705,4.403218592578172,1.0176736527323722,0.05882543697953224,-0.2088969498872757,0.6347694993019104,,,,,,
1764808623.514213,,,,,,,0.6031724810600281,-0.22612006962299347,-0.1372062861919403,-0.05798087269067764,0.11968883872032166,-0.5086761713027954
1764808623.518395,-2.351304475454986,4.560815630909801,1.317292851383984,-0.03362380340695381,-0.14012028276920319,0.48855850100517273,,,,,,
1764808623.524243,,,,,,,0.6188292503356934,-0.2046336531639099,-0.16038662195205688,0.05109986290335655,0.0028908513486385345,-0.36663150787353516
1764808623.528447,-2.50869371625483,4.642028517740965,1.5935142233133315,-0.13902418315410614,-0.06647495180368423,0.32594797015190125,,,,,,
1764808623.534273,,,,,,,0.6455899477005005,-0.16826120018959045,-0.19161665439605713,0.2041224241256714,-0.09851673245429993,-0.20449399948120117
1764808623.538499,-2.570884799490869,4.788000584730506,1.8995111403033136,-0.2530128061771393,0.033181335777044296,0.14735771715641022,,,,,,
1764808623.544303,,,,,,,0.6807503700256348,-0.15977352857589722,-0.20249372720718384,0.3440246880054474,-0.22991523146629333,-0.05037899315357208
1764808623.548552,-2.5003625257611275,4.949031689164042,1.993356568083912,-0.36508142948150635,0.1355765163898468,-0.027586886659264565,,,,,,
1764808623.554333,,,,,,,0.705018162727356,-0.16828972101211548,-0.19885694980621338,0.4720119535923004,-0.37025368213653564,0.10388381034135818
1764808623.558604,-2.3635798735298215,5.02967875880599,1.8253483181141317,-0.46870529651641846,0.188932403922081,-0.19710268080234528,,,,,,
1764808623.564363,,,,,,,0.6991133093833923,-0.1950337290763855,-0.19635772705078125,0.5577934384346008,-0.49060195684432983,0.26305270195007324
1764808623.568657,-2.222256216868013,5.007813548478484,1.574338252069801,-0.5755025744438171,0.2080596536397934,-0.3737240433692932,,,,,,
1764808623.574393,,,,,,,0.6774176955223083,-0.19382621347904205,-0.18675625324249268,0.6403490304946899,-0.6062888503074646,0.42735427618026733
1764808623.578709,-2.074881881865114,4.919354928302765,1.5382558619499205,-0.680414617061615,0.22880356013774872,-0.546719491481781,,,,,,
1764808623.584424,,,,,,,0.6658331751823425,-0.18513968586921692,-0.16069218516349792,0.6639994978904724,-0.758390486240387,0.5820565223693848
1764808623.588761,-1.9060037171930073,4.807359365195036,1.3929028036415576,-0.7650085091590881,0.25875774025917053,-0.7058326601982117,,,,,,
1764808623.594453,,,,,,,0.6563466787338257,-0.21890193223953247,-0.13895833492279053,0.6017408967018127,-0.8830200433731079,0.7460154891014099
1764808623.598814,-1.8215449803084134,4.683752859270572,1.2140287301339208,-0.8458430767059326,0.2545805871486664,-0.8510116338729858,,,,,,
1764808623.604484,,,,,,,0.6350226402282715,-0.27620530128479004,-0.1312500536441803,0.4910801649093628,-1.0085068941116333,0.9069563746452332
1764808623.608866,-1.8208076059445737,4.468243730196357,1.0982745451450346,-0.9376608729362488,0.19425813853740692,-1.001402735710144,,,,,,
1764808623.614514,,,,,,,0.6143286228179932,-0.2998892664909363,-0.11744341254234314,0.4041188955307007,-1.1370502710342407,1.0566279888153076
1764808623.618918,-1.9214847794413565,4.198924100479483,0.9619675476014613,-1.043184757232666,0.12470350414514542,-1.1712162494659424,,,,,,
1764808623.624544,,,,,,,0.6018384695053101,-0.28101104497909546,-0.11188969016075134,0.37187471985816956,-1.2497528791427612,1.2092560529708862
1764808623.628971,-2.101782017619908,4.115650189465284,0.9283693755127489,-1.16176176071167,0.10064291208982468,-1.3528409004211426,,,,,,
1764808623.634574,,,,,,,0.6181977987289429,-0.25176411867141724,-0.11053377389907837,0.4238729476928711,-1.3752636909484863,1.37258780002594
1764808623.639023,-2.28664612532258,4.2297623063355685,1.028556281274557,-1.2867707014083862,0.14905595779418945,-1.5269862413406372,,,,,,
1764808623.644604,,,,,,,0.6473637819290161,-0.22326458990573883,-0.12084048986434937,0.5539854168891907,-1.527061939239502,1.5442992448806763
1764808623.649075,-2.386335164564848,4.287524759474397,1.041380837664753,-1.4025907516479492,0.2434503585100174,-1.6833138465881348,,,,,,
1764808623.654634,,,,,,,0.6470502018928528,-0.19578374922275543,-0.1268288791179657,0.7604802846908569,-1.6824805736541748,1.7052170038223267
1764808623.659128,-2.408495266185701,3.99749084303081,0.9364837083853781,-1.5103710889816284,0.34749704599380493,-1.8364951610565186,,,,,,
1764808623.664664,,,,,,,0.5998143553733826,-0.15836817026138306,-0.11439865827560425,0.9896463751792908,-1.756156325340271,1.8564050197601318
1764808623.66918,-2.437973874126375,3.7898885415583847,0.9176046742618084,-1.6184622049331665,0.4485009014606476,-1.9890708923339844,,,,,,
1764808623.674694,,,,,,,0.5656188726425171,-0.11048221588134766,-0.09967401623725891,1.1781734228134155,-1.8336551189422607,1.9992088079452515
1764808623.679232,-2.447367140893638,3.8623797772735355,0.8652898920696228,-1.7104560136795044,0.5382119417190552,-2.151893377304077,,,,,,
1764808623.684724,,,,,,,0.578344464302063,-0.1192295253276825,-0.0620996356010437,1.289278268814087,-1.9180816411972046,2.140026330947876
1764808623.689285,-2.3683348129719493,4.098663983350992,0.7020598893523216,-1.7746554613113403,0.612785279750824,-2.320603370666504,,,,,,
1764808623.694754,,,,,,,0.6009925603866577,-0.1856764256954193,-0.017297327518463135,1.2707942724227905,-1.9404546022415161,2.297621488571167
1764808623.699337,-2.270727256178856,4.500192527642846,0.5825613667359575,-1.823425531387329,0.6629348397254944,-2.4954307079315186,,,,,,
1764808623.704784,,,,,,,0.637972354888916,-0.22043204307556152,0.011598676443099976,1.1139466762542725,-1.9944815635681152,2.4683380126953125
1764808623.709389,-2.1405539390847084,4.931702953222394,0.49430093601346015,-1.856259822845459,0.6896154284477234,-2.673288345336914,,,,,,
1764808623.714814,,,,,,,0.6740942001342773,-0.2416074573993683,0.03636007010936737,1.0055781602859497,-2.0776495933532715,2.6455180644989014
1764808623.719442,-1.8672563456475733,4.8818221932440995,0.37824879099130626,-1.8760404586791992,0.7074262499809265,-2.852712869644165,,,,,,
1764808623.724844,,,,,,,0.6467692852020264,-0.2231728732585907,0.030181780457496643,0.9418147802352905,-2.06325364112854,2.8301422595977783
1764808623.729494,-1.5317726374104619,4.722898290222883,0.5363987870305776,-1.912063479423523,0.7234802842140198,-3.0276975631713867,,,,,,
1764808623.734874,,,,,,,0.6264535784721375,-0.12624123692512512,0.013828098773956299,1.057492733001709,-2.1006009578704834,3.012897491455078
1764808623.739547,-1.2016945876091718,4.561107891854643,0.689509619858861,-1.96246337890625,0.7441294193267822,-3.186462163925171,,,,,,
1764808623.744904,,,,,,,0.6275894045829773,-0.06248310208320618,0.015600800514221191,1.1813933849334717,-2.2025563716888428,3.162213087081909
1764808623.749599,-0.9295312588989734,4.368460582929849,0.6196136613339185,-2.0199618339538574,0.7678272724151611,-3.3286702632904053,,,,,,
1764808623.754934,,,,,,,0.620259702205658,-0.031245172023773193,0.02667158842086792,1.214307188987732,-2.2079293727874756,3.312502384185791
1764808623.759651,-0.760294051656127,4.40130194530189,0.42674949478805063,-2.0993170738220215,0.7649889588356018,-3.4657461643218994,,,,,,
1764808623.764965,,,,,,,0.6383571028709412,-0.051357418298721313,0.050398409366607666,1.1926616430282593,-2.215447187423706,3.4807138442993164
1764808623.769704,-0.6998392906934022,4.644208199867606,0.2760106883207336,-2.203829765319824,0.7353500723838806,-3.600770950317383,,,,,,
1764808623.774995,,,,,,,0.687458336353302,-0.07498559355735779,0.09390836954116821,1.0993385314941406,-2.2365636825561523,3.6667592525482178
1764808623.779756,-0.7117196981012821,5.042952081876993,0.07840016749799252,-2.310420274734497,0.7035471796989441,-3.7505247592926025,,,,,,
1764808623.785025,,,,,,,0.7414931654930115,-0.08058416843414307,0.12919431924819946,1.016366958618164,-2.345463514328003,3.887652635574341
1764808623.789808,-0.6906710648536681,5.23427018802464,-0.43419455009698865,-2.34356689453125,0.7079821228981018,-3.9150052070617676,,,,,,
1764808623.795055,,,,,,,0.7330529093742371,-0.08901143074035645,0.16184544563293457,0.9255855679512024,-2.397698402404785,4.038628578186035
1764808623.799861,-0.5655933173328638,5.067765036094189,-0.7160538548480719,-2.3328957557678223,0.7290647625923157,-4.081010341644287,,,,,,
1764808623.805085,,,,,,,0.6680778861045837,-0.04707157611846924,0.17497050762176514,0.7312020659446716,-2.394467830657959,4.1632537841796875
1764808623.809913,-0.4259697425872087,4.951705876809358,-0.835182923097536,-2.3233776092529297,0.7319298386573792,-4.214893341064453,,,,,,
1764808623.815115,,,,,,,0.6472721099853516,-0.07158809900283813,0.21560853719711304,0.5650027394294739,-2.50628662109375,4.352745056152344
1764808623.819965,-0.21719722829163074,4.528302185317874,-1.1849894634585827,-2.3247578144073486,0.7308288812637329,-4.316431522369385,,,,,,
1764808623.825145,,,,,,,0.6174983978271484,-0.13686853647232056,0.2844027280807495,0.3313939869403839,-2.5109832286834717,4.498884201049805
1764808623.830018,-0.17146540468633173,3.9445366669565436,-1.567826239827275,-2.3280529975891113,0.7202584147453308,-4.463704586029053,,,,,,
1764808623.835175,,,,,,,0.5816003680229187,-0.07637697458267212,0.3127925395965576,0.21185854077339172,-2.38486647605896,4.589816570281982
1764808623.84007,-0.09907704482376575,3.932528833776712,-1.4837638087838887,-2.354156732559204,0.6957850456237793,-4.629592418670654,,,,,,
1764808623.845205,,,,,,,0.6330969929695129,0.03638589382171631,0.33472740650177,0.18929995596408844,-2.3570504188537598,4.689015865325928
1764808623.850123,0.17463643593788145,4.699371868684888,-1.164686753207445,-2.384321928024292,0.6571013927459717,-4.759607791900635,,,,,,
1764808623.855235,,,,,,,0.7419454455375671,0.12622720003128052,0.34537947177886963,0.2275586575269699,-2.369739294052124,4.824440956115723
1764808623.860175,0.384392700573802,5.626780728602409,-0.966281903669238,-2.36279034614563,0.6080084443092346,-4.858781814575195,,,,,,
1764808623.865265,,,,,,,0.8119826316833496,0.15572398900985718,0.3093518018722534,0.36336660385131836,-2.413012742996216,4.990574359893799
1764808623.870227,0.43535657961368557,6.053181263822316,-0.9162566206537186,-2.30914044380188,0.5937639474868774,-4.926636695861816,,,,,,
1764808623.875295,,,,,,,0.8021758794784546,0.16527652740478516,0.26241350173950195,0.5407932996749878,-2.4307103157043457,5.069879531860352
1764808623.88028,0.3392132501542568,5.788715503877401,-0.7594326125212013,-2.2949588298797607,0.5972872972488403,-4.986502647399902,,,,,,
1764808623.885325,,,,,,,0.7304922938346863,0.21523946523666382,0.24288535118103027,0.6939722299575806,-2.3208389282226562,5.1146111488342285
1764808623.890332,0.11676526172757148,5.277552864912152,-0.652829556106776,-2.3354074954986572,0.6061884164810181,-5.077411651611328,,,,,,
1764808623.895355,,,,,,,0.6961590647697449,0.2416347861289978,0.26463818550109863,0.8447297811508179,-2.25765061378479,5.204132556915283
1764808623.900384,-0.00978022025823593,4.893334351861476,-1.1057441503733396,-2.386164426803589,0.6325609087944031,-5.220627307891846,,,,,,
1764808623.905385,,,,,,,0.7122663259506226,0.22652095556259155,0.3142589330673218,0.9125964045524597,-2.235024929046631,5.295644283294678
1764808623.910437,0.18937340182065962,4.719730766102671,-1.5891061976127325,-2.4416756629943848,0.6374207735061646,-5.383906841278076,,,,,,
1764808623.915415,,,,,,,0.7208647131919861,0.2507507801055908,0.33623790740966797,0.9737535119056702,-2.1228842735290527,5.379015922546387
1764808623.920489,0.7178653612494468,4.9852013191759585,-1.6344588126420974,-2.5095245838165283,0.6156120896339417,-5.507785797119141,,,,,,
1764808623.925446,,,,,,,0.735558271408081,0.2974916696548462,0.34431982040405273,1.0769370794296265,-1.9881768226623535,5.438674449920654
1764808623.930541,1.3897878864914177,5.6919765466123815,-1.544084275842458,-2.538210868835449,0.5859026908874512,-5.544488430023193,,,,,,
1764808623.935476,,,,,,,0.7657564282417297,0.36556440591812134,0.42188334465026855,1.1514312028884888,-1.8092931509017944,5.49747371673584
1764808623.940594,1.8838152662605046,6.675539839950203,-1.4564508544445036,-2.501500129699707,0.5562425255775452,-5.477306365966797,,,,,,
1764808623.945506,,,,,,,0.8000165224075317,0.4366205334663391,0.46117520332336426,1.2408174276351929,-1.646894931793213,5.572315692901611
1764808623.950646,1.9232161332786082,7.518701559907197,-1.6372300309211014,-2.410900354385376,0.5564928650856018,-5.351227283477783,,,,,,
1764808623.955536,,,,,,,0.8245723247528076,0.4571002125740051,0.45094096660614014,1.2982079982757568,-1.5431040525436401,5.595940113067627
1764808623.960698,1.5963398021280764,7.865976535964012,-1.8964577440820634,-2.303621292114258,0.6026121377944946,-5.238302230834961,,,,,,
1764808623.965566,,,,,,,0.8155584335327148,0.47110092639923096,0.4633432626724243,1.3168306350708008,-1.4374457597732544,5.575829982757568
1764808623.970751,1.3332558519303799,7.61998517486453,-1.9839415278762578,-2.1904842853546143,0.7055287957191467,-5.182098865509033,,,,,,
1764808623.975596,,,,,,,0.7725622653961182,0.5014511942863464,0.45006251335144043,1.415829062461853,-1.3038946390151978,5.560120582580566
1764808623.980803,1.3957429955035447,7.029518113037944,-1.8471938008278608,-2.096479654312134,0.8360857367515564,-5.178900241851807,,,,,,
1764808623.985626,,,,,,,0.7199766039848328,0.5240107178688049,0.4314119815826416,1.536923885345459,-1.1443172693252563,5.565260887145996
1764808623.990856,1.760451921442151,6.478803215885162,-1.7932998596854506,-2.044287919998169,0.9599573612213135,-5.2256293296813965,,,,,,
1764808623.995656,,,,,,,0.6680234670639038,0.566981852054596,0.41100072860717773,1.5655829906463623,-0.9670348167419434,5.544245719909668
1764808624.000908,2.365180148333311,6.121587860572338,-1.8201386206418275,-2.0439932346343994,1.031140923500061,-5.294105529785156,,,,,,
1764808624.005686,,,,,,,0.6475083827972412,0.5777339935302734,0.33696258068084717,1.6248347759246826,-0.7485077977180481,5.5995402336120605
1764808624.01096,3.136121266210079,5.967448853740096,-1.701064497449994,-2.0823569297790527,1.0059534311294556,-5.329558849334717,,,,,,
1764808624.015716,,,,,,,0.6578765511512756,0.5361141562461853,0.2810233235359192,1.6506390571594238,-0.5940183401107788,5.64636754989624
1764808624.021013,3.7948020325630902,5.888247306731343,-1.5389444287359713,-2.1307036876678467,0.8634799718856812,-5.321508407592773,,,,,,
1764808624.025746,,,,,,,0.6845451593399048,0.5026721358299255,0.2790555953979492,1.6178442239761353,-0.48413074016571045,5.659719944000244
1764808624.031065,4.069056196072697,5.905013148093223,-1.4934826542437076,-2.165341854095459,0.6407284736633301,-5.284123420715332,,,,,,
1764808624.035776,,,,,,,0.713341474533081,0.48712629079818726,0.28781265020370483,1.5879158973693848,-0.3634650409221649,5.679854393005371
1764808624.041117,3.976670173320174,6.070600016134977,-1.5919973890095949,-2.18512225151062,0.3831091821193695,-5.234325885772705,,,,,,
1764808624.045806,,,,,,,0.7359199523925781,0.5010039210319519,0.30554473400115967,1.6668801307678223,-0.24668088555335999,5.72739315032959
1764808624.05117,3.766608788257837,6.351475059089064,-1.7670698782771825,-2.1878159046173096,0.096405528485775,-5.183081150054932,,,,,,
1764808624.055836,,,,,,,0.7513241171836853,0.5385417938232422,0.34277576208114624,1.6215083599090576,-0.17819850146770477,5.720609664916992
1764808624.061222,3.485276649186015,6.6879656062811605,-2.1018886928647755,-2.155425548553467,-0.19124169647693634,-5.140562534332275,,,,,,
1764808624.065866,,,,,,,0.7698173522949219,0.5670726895332336,0.389973521232605,1.2081890106201172,-0.14773885905742645,5.565674304962158
1764808624.071274,3.2730390891283747,7.119431023675203,-2.459941083523631,-2.098400354385376,-0.4624355733394623,-5.111195087432861,,,,,,
1764808624.075897,,,,,,,0.8018933534622192,0.5261697173118591,0.45155835151672363,0.5382434129714966,-0.08079446107149124,5.45510196685791
1764808624.081326,3.312618235322833,7.5874506864845745,-2.74146611481905,-2.029451608657837,-0.697052538394928,-5.059720516204834,,,,,,
1764808624.085927,,,,,,,0.8388450145721436,0.4328329563140869,0.5275792479515076,-0.2428874373435974,-0.08116277307271957,5.406454086303711
1764808624.091378,3.3637469495356083,7.902111094662547,-3.1491642876565455,-1.9799672365188599,-0.9232827425003052,-4.982109546661377,,,,,,
1764808624.095958,,,,,,,0.8732715845108032,0.39166373014450073,0.5377950072288513,-0.8571082353591919,-0.11329088360071182,5.2873616218566895
1764808624.10143,3.2955823448479173,7.976878458616137,-3.3819396088302134,-2.005645275115967,-1.188156008720398,-4.899942398071289,,,,,,
1764808624.105988,,,,,,,0.9014018177986145,0.4397384524345398,0.5625712871551514,-1.033800482749939,-0.09238746762275696,5.182294845581055
1764808624.111484,3.2572634278476236,7.726360560002923,-3.5739983042120933,-2.082467555999756,-1.479904055595398,-4.811246395111084,,,,,,
1764808624.116018,,,,,,,0.9280778169631958,0.6051232814788818,0.5959820747375488,-1.1508339643478394,-0.18685005605220795,5.088405132293701
1764808624.121536,3.029614363646507,7.617545965018868,-4.001844946587085,-2.133007526397705,-1.7681668996810913,-4.7232255935668945,,,,,,
1764808624.126047,,,,,,,0.9559652805328369,0.7611253261566162,0.5513594746589661,-1.142440676689148,-0.38933098316192627,4.977194309234619
1764808624.131588,2.7985511070877314,7.638529131814837,-3.9220109468936917,-2.153186798095703,-2.03519868850708,-4.624895095825195,,,,,,
1764808624.136077,,,,,,,0.9428386092185974,0.7361727952957153,0.5054264664649963,-1.089769721031189,-0.5412278175354004,4.885206699371338
1764808624.141641,2.737096229171753,7.3852435220539565,-3.7222868314504622,-2.1716811656951904,-2.23225474357605,-4.529829025268555,,,,,,
1764808624.146107,,,,,,,0.876447856426239,0.6636927723884583,0.5375453233718872,-1.1088292598724365,-0.6185183525085449,4.8151750564575195
1764808624.151693,2.593186355409026,6.896296222028136,-3.8241456159472462,-2.193018674850464,-2.37259578704834,-4.45644474029541,,,,,,
1764808624.156137,,,,,,,0.7953382730484009,0.6307905912399292,0.588106632232666,-1.1689282655715942,-0.5885660648345947,4.770761966705322
1764808624.161746,2.286506424590945,6.4101704091638325,-3.953548240929842,-2.2083981037139893,-2.457188844680786,-4.4284820556640625,,,,,,
1764808624.166167,,,,,,,0.7247917056083679,0.6023260951042175,0.6315630078315735,-1.249229073524475,-0.4906695783138275,4.663008689880371
1764808624.171798,1.9864716308757662,6.2700236873269075,-3.938674496924877,-2.2064120769500732,-2.513155698776245,-4.4347243309021,,,,,,
1764808624.176198,,,,,,,0.698693037033081,0.5970239043235779,0.6525090932846069,-1.5857000350952148,-0.38405314087867737,4.551141738891602
1764808624.18185,1.8135253399819136,6.586397329163551,-3.7755554803013798,-2.169292688369751,-2.567103147506714,-4.4490861892700195,,,,,,
1764808624.186228,,,,,,,0.7223389744758606,0.6269174814224243,0.659958004951477,-2.034163475036621,-0.27307626605033875,4.452998161315918
1764808624.191903,1.785983837583661,7.176401449653506,-3.6115725403249264,-2.1016762256622314,-2.57484769821167,-4.434257984161377,,,,,,
1764808624.196258,,,,,,,0.7638533711433411,0.6507172584533691,0.6485217809677124,-2.425299882888794,-0.15861627459526062,4.430900573730469
1764808624.201955,1.9402096459165215,7.868445556426048,-3.6643455146133896,-2.0406949520111084,-2.492007255554199,-4.393955707550049,,,,,,
1764808624.206288,,,,,,,0.820831298828125,0.6790885925292969,0.6004866361618042,-2.6103358268737793,-0.09578512609004974,4.408687591552734
1764808624.212007,2.066859465059638,8.256187567427753,-3.8094191714584826,-1.9871366024017334,-2.345827102661133,-4.3348774909973145,,,,,,
1764808624.216317,,,,,,,0.8696337938308716,0.7190173864364624,0.5664860010147095,-2.6007678508758545,-0.09784907847642899,4.332413196563721
1764808624.222059,2.1266005247950552,8.018594032317399,-4.011138844633102,-1.9271230697631836,-2.1895811557769775,-4.267516136169434,,,,,,
1764808624.226347,,,,,,,0.8690844178199768,0.7591606974601746,0.5661461353302002,-2.468686103820801,-0.10762980580329895,4.263039588928223
1764808624.232111,2.085233033879101,7.265777769196033,-4.092642238843441,-1.8616303205490112,-2.0415921211242676,-4.215454578399658,,,,,,
1764808624.236378,,,,,,,0.7897241115570068,0.793586254119873,0.5688143372535706,-2.296462059020996,-0.026662247255444527,4.2152419090271
1764808624.242164,1.9575950804814695,6.5259197718471285,-4.037534684127569,-1.7848844528198242,-1.900541067123413,-4.184979438781738,,,,,,
1764808624.246408,,,,,,,0.6716907024383545,0.8087226152420044,0.5478069186210632,-2.126056432723999,0.15713341534137726,4.172367095947266
1764808624.252217,1.8732080936588347,6.087488022571802,-3.988704894506931,-1.694692850112915,-1.7694091796875,-4.169798374176025,,,,,,
1764808624.256438,,,,,,,0.5750478506088257,0.8079054951667786,0.5225405097007751,-1.9362443685531616,0.3917936086654663,4.130835056304932
1764808624.262268,1.887981153768301,5.956221357282995,-3.943927010625601,-1.6104048490524292,-1.6489182710647583,-4.158193111419678,,,,,,
1764808624.266469,,,,,,,0.5344734191894531,0.8091773986816406,0.49010229110717773,-1.821811318397522,0.5975398421287537,4.091468811035156
1764808624.272321,2.0493680859021843,5.991922785261273,-3.9165059197366237,-1.5253063440322876,-1.5683096647262573,-4.128506660461426,,,,,,
1764808624.276498,,,,,,,0.5402825474739075,0.8105522394180298,0.46125781536102295,-1.7586073875427246,0.714821994304657,4.014157772064209
1764808624.282374,2.336169304034859,5.940092644780874,-3.7869124483570453,-1.437260627746582,-1.5258452892303467,-4.080404758453369,,,,,,
1764808624.286529,,,,,,,0.5515042543411255,0.7631299495697021,0.43376243114471436,-1.79068124294281,0.7906874418258667,3.9037270545959473
1764808624.292426,2.627724877087772,5.739789268144965,-3.7092575462684034,-1.3380277156829834,-1.4832862615585327,-4.027734279632568,,,,,,
1764808624.296559,,,,,,,0.5420089960098267,0.7061724066734314,0.4245070219039917,-1.9309011697769165,0.8751051425933838,3.7715039253234863
1764808624.302479,2.76806010723412,5.48061752295494,-3.745763276366889,-1.2281986474990845,-1.4246453046798706,-3.9742846488952637,,,,,,
1764808624.306588,,,,,,,0.5141728520393372,0.6716307401657104,0.4382040500640869,-2.0945613384246826,0.979925811290741,3.6873879432678223
1764808624.312531,2.697520590108633,5.318627218100429,-3.86026322351098,-1.114843726158142,-1.339536428451538,-3.923417329788208,,,,,,
1764808624.316618,,,,,,,0.48092323541641235,0.6625502109527588,0.42892348766326904,-2.1789703369140625,1.0406855344772339,3.62744402885437
1764808624.322582,2.5648507800236344,5.034774036118388,-3.8952971274912356,-1.017591953277588,-1.2614076137542725,-3.888139009475708,,,,,,
1764808624.326648,,,,,,,0.45047301054000854,0.6674530506134033,0.39443886280059814,-2.245877504348755,1.0762765407562256,3.5594587326049805
1764808624.332636,2.52730723131001,4.597915819770098,-3.833668938834965,-0.9429850578308105,-1.1890411376953125,-3.8554041385650635,,,,,,
1764808624.336679,,,,,,,0.42945003509521484,0.6875330209732056,0.36685681343078613,-2.298513412475586,1.1359561681747437,3.5034282207489014
1764808624.342688,2.71235283305943,4.286904581749439,-3.583509936662018,-0.8861153721809387,-1.1121094226837158,-3.815211296081543,,,,,,
1764808624.346709,,,,,,,0.42769140005111694,0.6832600831985474,0.31164586544036865,-2.286212682723999,1.14333176612854,3.456651210784912
1764808624.35274,2.969103780843317,4.050839571380615,-3.3417242105588314,-0.8408676981925964,-1.0419397354125977,-3.7639353275299072,,,,,,
1764808624.356739,,,,,,,0.4255114197731018,0.6541967988014221,0.2515755891799927,-2.213149070739746,1.1367428302764893,3.386810779571533
1764808624.362792,3.097563864278793,3.813387490567565,-3.1382196997940537,-0.8170577883720398,-0.9943214058876038,-3.697944402694702,,,,,,
1764808624.366769,,,,,,,0.4132968783378601,0.6768995523452759,0.22095216810703278,-2.1844871044158936,1.1614388227462769,3.329071283340454
1764808624.372844,3.1978394712373612,3.8567157601624724,-2.8422750980019567,-0.8180457949638367,-0.9841946959495544,-3.623490810394287,,,,,,
1764808624.376798,,,,,,,0.4217023253440857,0.7054340839385986,0.17736399173736572,-2.1245415210723877,1.1288257837295532,3.2468791007995605
1764808624.382897,3.3350866722404953,3.9736066940963264,-2.6143419561624524,-0.803148627281189,-1.0196112394332886,-3.5474607944488525,,,,,,
1764808624.386829,,,,,,,0.43924713134765625,0.6900220513343811,0.14465023577213287,-2.178072929382324,1.0215413570404053,3.1182680130004883
1764808624.39295,3.56951882071048,3.8954672233611345,-2.420093349520862,-0.7464283108711243,-1.0967273712158203,-3.4614782333374023,,,,,,
1764808624.396859,,,,,,,0.42836642265319824,0.6645940542221069,0.13986241817474365,-2.298628807067871,0.9555538892745972,2.95163631439209
1764808624.403002,3.893867679210007,3.778391580510139,-2.082631619209051,-0.6760007739067078,-1.205475926399231,-3.3546979427337646,,,,,,
1764808624.406889,,,,,,,0.38741838932037354,0.6559013724327087,0.12292899191379547,-2.4754459857940674,0.9750043153762817,2.7951736450195312
1764808624.413054,4.208291940544545,3.841317115500569,-1.6140090220704675,-0.5735158920288086,-1.344580054283142,-3.1985955238342285,,,,,,
1764808624.416919,,,,,,,0.35517728328704834,0.6705366969108582,0.11344751715660095,-2.6259586811065674,0.9426170587539673,2.6169846057891846
1764808624.423107,4.414941471336782,3.8508191033393144,-1.2187097275570034,-0.43613266944885254,-1.4893382787704468,-2.9997220039367676,,,,,,
1764808624.426949,,,,,,,0.3284575939178467,0.6860610246658325,0.040531739592552185,-2.7631568908691406,0.859545886516571,2.3790159225463867
1764808624.433159,4.520051658844948,3.4949715292483567,-0.795244076745212,-0.31676456332206726,-1.6535212993621826,-2.777637243270874,,,,,,
1764808624.43698,,,,,,,0.2971542477607727,0.7082027792930603,-0.05562031269073486,-2.897629499435425,0.7282972931861877,2.166078567504883
1764808624.443212,4.564719068089127,2.770938877540827,-0.3997112657368183,-0.242909237742424,-1.8367739915847778,-2.5505146980285645,,,,,,
1764808624.44701,,,,,,,0.2638152837753296,0.6822381019592285,-0.1046687439084053,-2.8851747512817383,0.5512727499008179,1.9966739416122437
1764808624.453264,4.46484239732027,1.794959755721688,-0.36875790906846523,-0.2112160623073578,-1.925310730934143,-2.3680121898651123,,,,,,
1764808624.45704,,,,,,,0.1945975422859192,0.626825213432312,-0.10698924958705902,-2.8418030738830566,0.4736993908882141,1.8395729064941406
1764808624.463315,4.187958469828963,0.9764853177756071,-0.6498775744333863,-0.21159981191158295,-1.8073222637176514,-2.2637784481048584,,,,,,
1764808624.46707,,,,,,,0.10822397470474243,0.631424069404602,-0.10967695713043213,-2.6798341274261475,0.5362874269485474,1.7199774980545044
1764808624.473369,3.921014921593666,0.5826297923296689,-0.8866039713203906,-0.23327793180942535,-1.4996140003204346,-2.2038047313690186,,,,,,
1764808624.477099,,,,,,,0.052892088890075684,0.6689942479133606,-0.164428249001503,-2.38724684715271,0.6171255111694336,1.675338625907898
1764808624.483421,3.7730826604470606,0.48698564456403254,-1.00732703076303,-0.27136263251304626,-1.105934977531433,-2.1403446197509766,,,,,,
1764808624.487129,,,,,,,0.04561495780944824,0.723328173160553,-0.25559914112091064,-1.9509179592132568,0.5862157940864563,1.683815598487854
1764808624.493473,3.805594644734263,0.37038521800935265,-1.13833446059376,-0.3358726501464844,-0.6970537900924683,-2.0401623249053955,,,,,,
1764808624.497159,,,,,,,0.056955158710479736,0.7694807052612305,-0.33013296127319336,-1.4527424573898315,0.49357613921165466,1.6888642311096191
1764808624.503525,4.1482478062093255,0.1180845276325941,-1.3052376719310879,-0.41680970788002014,-0.2966526448726654,-1.9184015989303589,,,,,,
1764808624.50719,,,,,,,0.04980224370956421,0.8012045621871948,-0.3649322986602783,-0.9990959167480469,0.3653601408004761,1.6815314292907715
1764808624.513577,4.664027583581209,-0.2720230434566736,-1.4777812272429465,-0.4773723781108856,0.06774687767028809,-1.8055139780044556,,,,,,
1764808624.51722,,,,,,,0.0036982297897338867,0.7658929228782654,-0.3570680618286133,-0.5885190367698669,0.2209896296262741,1.6646339893341064
1764808624.52363,5.286897031840682,-0.7519803968191147,-1.56330379396677,-0.5055679082870483,0.34586092829704285,-1.7419084310531616,,,,,,
1764808624.52725,,,,,,,-0.07839006185531616,0.6974373459815979,-0.32045793533325195,-0.3690556585788727,0.1881331503391266,1.650169849395752
1764808624.533683,5.890878824278712,-1.144891919413209,-1.5381816276699303,-0.5137776136398315,0.5174830555915833,-1.7312427759170532,,,,,,
1764808624.53728,,,,,,,-0.16747266054153442,0.6762349605560303,-0.2868858575820923,-0.22975130379199982,0.25929734110832214,1.6667765378952026
1764808624.543735,6.5246870151817795,-1.4233657464444636,-1.448348796531558,-0.5101993083953857,0.5325322151184082,-1.7441869974136353,,,,,,
1764808624.547309,,,,,,,-0.2271243929862976,0.6911097168922424,-0.32245969772338867,-0.1560651808977127,0.3073386251926422,1.6921509504318237
1764808624.553787,7.221256490424275,-1.6065858863323925,-1.2610817193403838,-0.5206437110900879,0.3965126574039459,-1.7289087772369385,,,,,,
1764808624.557341,,,,,,,-0.25153547525405884,0.7289001941680908,-0.35159826278686523,-0.07702521979808807,0.31669965386390686,1.6758686304092407
1764808624.56384,7.965971864676475,-1.784564618435502,-1.3271397071376443,-0.5281066298484802,0.22323310375213623,-1.64908766746521,,,,,,
1764808624.56737,,,,,,,-0.25758159160614014,0.7502391934394836,-0.3508632183074951,0.004436864051967859,0.25457528233528137,1.638065218925476
1764808624.573892,8.509585989913344,-1.9933955849200486,-1.654004640111327,-0.5229606032371521,0.10390431433916092,-1.5146403312683105,,,,,,
1764808624.5774,,,,,,,-0.2646484971046448,0.7686086297035217,-0.3609044551849365,0.044645268470048904,0.17312836647033691,1.5929019451141357
1764808624.583945,8.749865987628699,-2.1447394080758095,-1.8729244544118642,-0.5155404210090637,0.03478211537003517,-1.346261739730835,,,,,,
1764808624.58743,,,,,,,-0.2781747579574585,0.7942075729370117,-0.358579158782959,0.0627516582608223,0.12474538385868073,1.5219571590423584
1764808624.593997,8.693301219841837,-2.2204548665344714,-2.017026635876298,-0.5021899938583374,0.004153899382799864,-1.1731001138687134,,,,,,
1764808624.597461,,,,,,,-0.30654436349868774,0.8125370740890503,-0.3526906967163086,0.09431438148021698,0.06254299730062485,1.4401062726974487
1764808624.604048,8.411283436593413,-2.3572347422868014,-2.1974013232052325,-0.47761139273643494,0.008809498511254787,-1.0264071226119995,,,,,,
1764808624.607491,,,,,,,-0.33591222763061523,0.8426650166511536,-0.36651110649108887,0.12482546269893646,0.006761223077774048,1.3507498502731323
1764808624.614102,8.10089763699472,-2.5062597671061755,-2.239128002822399,-0.46490731835365295,0.044866036623716354,-0.8942752480506897,,,,,,
1764808624.617521,,,,,,,-0.35978835821151733,0.9163414835929871,-0.38914263248443604,0.18170978128910065,-0.002675421768799424,1.2058378458023071
1764808624.624154,7.922873896706104,-2.550834237369895,-2.207479357366264,-0.4774463474750519,0.07782270759344101,-0.7503479719161987,,,,,,
1764808624.627551,,,,,,,-0.3788589835166931,0.9691464900970459,-0.40225040912628174,0.3128374516963959,-0.020396629348397255,1.0497727394104004
1764808624.634206,7.91986010184288,-2.387080429974198,-2.2623738538533447,-0.4936192035675049,0.10126864165067673,-0.5683949589729309,,,,,,
1764808624.63758,,,,,,,-0.3741523027420044,0.9943540692329407,-0.39152395725250244,0.416686087846756,-0.026909654960036278,0.8925377726554871
1764808624.644258,7.928159728154539,-2.028154763612151,-2.4457266802102327,-0.4908711016178131,0.12368420511484146,-0.35354384779930115,,,,,,
1764808624.64761,,,,,,,-0.3444097638130188,0.9994169473648071,-0.37239813804626465,0.46994054317474365,-0.06945658475160599,0.7053637504577637
1764808624.65431,7.83326669101715,-1.522035379511118,-2.5480019365534186,-0.460813045501709,0.1232794001698494,-0.11996147036552429,,,,,,
1764808624.65764,,,,,,,-0.3004428744316101,0.9651659727096558,-0.3332933187484741,0.45782342553138733,-0.1626669466495514,0.46887820959091187
1764808624.664363,7.651032639557123,-0.9899053558409213,-2.5628689585566518,-0.402198851108551,0.08982739597558975,0.10998381674289703,,,,,,
1764808624.66767,,,,,,,-0.2603772282600403,0.9281344413757324,-0.2849457263946533,0.33392536640167236,-0.25244104862213135,0.2095784842967987
1764808624.674416,7.395729260233044,-0.4962888949602842,-2.557069916889071,-0.30492424964904785,0.025381824001669884,0.33013108372688293,,,,,,
1764808624.677701,,,,,,,-0.22829866409301758,0.9034892320632935,-0.24334180355072021,0.17095482349395752,-0.3621688783168793,-0.061376847326755524
1764808624.684468,7.088931255993247,-0.16850655488073824,-2.484646485713124,-0.16999760270118713,-0.06926185637712479,0.5444971919059753,,,,,,
1764808624.687731,,,,,,,-0.2217235565185547,0.8733042478561401,-0.20938849449157715,-0.0009265491971746087,-0.4474464952945709,-0.35140755772590637
1764808624.69452,6.7408280124187465,-0.057608139359951016,-2.366671848195791,-0.02208653837442398,-0.16123297810554504,0.750921905040741,,,,,,
1764808624.697761,,,,,,,-0.23255300521850586,0.8514456748962402,-0.16884420812129974,-0.19667474925518036,-0.47836098074913025,-0.6091320514678955
1764808624.704573,6.387740550690889,-0.023846739533543587,-2.277258703774214,0.10663575679063797,-0.2498733550310135,0.9428894519805908,,,,,,
1764808624.707791,,,,,,,-0.22953259944915771,0.8213839530944824,-0.1529994010925293,-0.41395649313926697,-0.4951048195362091,-0.862087070941925
1764808624.714625,6.0004433608472345,-0.004962006321549415,-2.157646235921979,0.21919311583042145,-0.3211223781108856,1.1226493120193481,,,,,,
1764808624.717822,,,,,,,-0.2077326774597168,0.7809191942214966,-0.11609327048063278,-0.6485008001327515,-0.47325173020362854,-1.1199607849121094
1764808624.724678,5.637734668815136,0.1966553755223751,-2.1137597479224204,0.322135329246521,-0.33644190430641174,1.2955715656280518,,,,,,
1764808624.727851,,,,,,,-0.1703973412513733,0.7520623207092285,-0.09425830096006393,-0.834962785243988,-0.46860024333000183,-1.378157377243042
1764808624.73473,5.2882396786212915,0.4875649057567119,-2.006720345917344,0.4196520447731018,-0.3315376937389374,1.4618949890136719,,,,,,
1764808624.737881,,,,,,,-0.13058537244796753,0.7339616417884827,-0.09682189673185349,-0.953704297542572,-0.505609393119812,-1.6381893157958984
1764808624.744781,4.986171625512838,0.6008557693719864,-1.919493897885084,0.5125629901885986,-0.3339417576789856,1.6174037456512451,,,,,,
1764808624.747911,,,,,,,-0.10903322696685791,0.729629635810852,-0.11410951614379883,-1.0280910730361938,-0.5123341083526611,-1.8648293018341064
1764808624.754835,4.783322071525454,0.5476654464542865,-1.868825494660437,0.5887669324874878,-0.35696423053741455,1.7608144283294678,,,,,,
1764808624.757941,,,,,,,-0.09331434965133667,0.7158406376838684,-0.11101733893156052,-1.0230786800384521,-0.5148894190788269,-2.0361485481262207
1764808624.764887,4.608182946762442,0.4153618393331766,-1.891947719311714,0.6583082675933838,-0.36763250827789307,1.8950839042663574,,,,,,
1764808624.767972,,,,,,,-0.08541887998580933,0.6685311198234558,-0.0831526517868042,-1.0217726230621338,-0.4955032169818878,-2.2041211128234863
1764808624.774939,4.459314573809504,0.3364204045653343,-1.9364438636422157,0.7416146397590637,-0.33415576815605164,2.0137779712677,,,,,,
1764808624.778002,,,,,,,-0.08474570512771606,0.6273929476737976,-0.042357683181762695,-1.0188500881195068,-0.4408271908760071,-2.3468422889709473
1764808624.784992,4.206909254014492,0.40437107424139973,-1.8865479060947894,0.8362519145011902,-0.2569914758205414,2.127180576324463,,,,,,
1764808624.788032,,,,,,,-0.08138382434844971,0.5893139243125916,-0.016494987532496452,-0.9437786936759949,-0.3608860373497009,-2.4654200077056885
1764808624.795043,3.913321444481611,0.5313087704151869,-1.6705431024581192,0.9018442630767822,-0.19092191755771637,2.233812093734741,,,,,,
1764808624.798062,,,,,,,-0.07113534212112427,0.5800871849060059,-0.040793418884277344,-0.8094711899757385,-0.2552754580974579,-2.562795400619507
1764808624.805096,3.6716064455270767,0.6825766057252883,-1.4074065452903508,0.9190248250961304,-0.18800468742847443,2.3300061225891113,,,,,,
1764808624.808091,,,,,,,-0.03228980302810669,0.5895518660545349,-0.07067465782165527,-0.6083781123161316,-0.19811947643756866,-2.663046360015869
1764808624.815149,3.437658573442697,0.8448129942953586,-1.340262515822053,0.9114280939102173,-0.21983851492404938,2.428356647491455,,,,,,
1764808624.818121,,,,,,,0.025032877922058105,0.5802331566810608,-0.06285703182220459,-0.43017664551734924,-0.17681552469730377,-2.731430768966675
1764808624.825201,3.238152192403376,1.0989794785439968,-1.4331255084365606,0.9017472267150879,-0.2743012309074402,2.518608570098877,,,,,,
1764808624.828151,,,,,,,0.09388333559036255,0.5201373100280762,-0.025425195693969727,-0.27191659808158875,-0.22684966027736664,-2.802708864212036
1764808624.835253,2.9883038636147976,1.3013701828479767,-1.5174711403355001,0.8943671584129333,-0.34263473749160767,2.578279495239258,,,,,,
1764808624.838181,,,,,,,0.1348540186882019,0.4287751019001007,0.014452993869781494,-0.2879107594490051,-0.29100069403648376,-2.8879637718200684
1764808624.845306,2.676767140415311,1.5075450818657874,-1.6005933679193258,0.9198847413063049,-0.3849562406539917,2.6033506393432617,,,,,,
1764808624.848212,,,,,,,0.15139728784561157,0.3588314354419708,0.08168315887451172,-0.3608661890029907,-0.2920641005039215,-2.91532564163208
1764808624.855358,2.4391344423383474,1.7300760724008082,-1.6082371606707573,0.974195659160614,-0.4073219895362854,2.6223196983337402,,,,,,
1764808624.858242,,,,,,,0.1547115445137024,0.29324597120285034,0.09491407871246338,-0.39185631275177,-0.28679636120796204,-2.9441421031951904
1764808624.865411,2.2614140689104794,1.7113672802776096,-1.3104916469365357,0.9965829849243164,-0.49514317512512207,2.6419012546539307,,,,,,
1764808624.868272,,,,,,,0.14179879426956177,0.28581905364990234,0.05567508935928345,-0.39110690355300903,-0.25490766763687134,-3.006413459777832
1764808624.875463,2.0639307181313633,1.607252825808525,-0.9924810515478253,0.9996878504753113,-0.6085412502288818,2.660684585571289,,,,,,
1764808624.878303,,,,,,,0.14045971632003784,0.3246556520462036,0.06144028902053833,-0.2868475914001465,-0.13327550888061523,-3.039775848388672
1764808624.885514,1.8647610217005013,1.880577014991641,-0.907789674951136,1.022276520729065,-0.6378431916236877,2.7044875621795654,,,,,,
1764808624.888333,,,,,,,0.17977190017700195,0.32959669828414917,0.08290642499923706,-0.09127113223075867,-0.023824915289878845,-3.083014488220215
1764808624.895568,1.6618325572580097,2.4737597655177117,-0.6166255854338407,1.0303242206573486,-0.6544747352600098,2.7812726497650146,,,,,,
1764808624.898362,,,,,,,0.24495893716812134,0.3155934512615204,0.03315609693527222,0.01494691800326109,-0.014104642905294895,-3.204218864440918
1764808624.90562,1.3539037954226136,3.073110391023755,-0.1814759265691042,1.0109434127807617,-0.7719400525093079,2.868415355682373,,,,,,
1764808624.908392,,,,,,,0.3262641429901123,0.3011329770088196,0.014268577098846436,0.06925594806671143,-0.05817010626196861,-3.3165433406829834
1764808624.915672,0.9845917596027255,3.5401334440112113,-0.10039864881634712,1.0142505168914795,-0.9145669937133789,2.9580254554748535,,,,,,
1764808624.918422,,,,,,,0.4090394377708435,0.26889675855636597,0.05024158954620361,0.10043038427829742,-0.15009815990924835,-3.38480806350708
1764808624.925725,0.6613818420052529,3.6656852387845515,-0.28248656980395315,1.0328651666641235,-1.0369685888290405,3.020102024078369,,,,,,
1764808624.928452,,,,,,,0.45437806844711304,0.22715504467487335,0.046794891357421875,0.029225649312138557,-0.2743367552757263,-3.464486598968506
1764808624.935776,0.3770344467654824,3.5324732846468687,-0.3110851800397038,1.0408051013946533,-1.1405029296875,3.029475212097168,,,,,,
1764808624.938483,,,,,,,0.4504106640815735,0.146807461977005,0.08348530530929565,-0.11378796398639679,-0.31329748034477234,-3.5124266147613525
1764808624.945829,0.14823635865971446,3.542271040561795,-0.2910343256577849,1.0445599555969238,-1.2035775184631348,3.0039284229278564,,,,,,
1764808624.948513,,,,,,,0.4516274333000183,0.03380051255226135,0.13843399286270142,-0.2984408736228943,-0.2976545989513397,-3.4959676265716553
1764808624.955881,0.025522709921747443,3.744239720061421,-0.19624124176353214,1.0550205707550049,-1.277535080909729,2.9674785137176514,,,,,,
1764808624.958543,,,,,,,0.4665195941925049,-0.055305272340774536,0.14029210805892944,-0.5266785621643066,-0.3484634459018707,-3.493065595626831
1764808624.965934,-0.18918810838162897,3.730820851039886,-0.029853870993852612,1.089927077293396,-1.3947558403015137,2.919495105743408,,,,,,
1764808624.968573,,,,,,,0.46712392568588257,-0.07724478840827942,0.13352394104003906,-0.771864116191864,-0.43617093563079834,-3.4754769802093506
1764808624.975986,-0.5362844399359077,3.4006852258324622,-0.13302782974243163,1.1916462182998657,-1.4393174648284912,2.8564441204071045,,,,,,
1764808624.978602,,,,,,,0.42574942111968994,-0.08148018270730972,0.1834375262260437,-0.9131442904472351,-0.4191488027572632,-3.4033877849578857
1764808624.986038,-0.9683081487998366,3.0235616394788023,-0.3810018890917301,1.345603108406067,-1.3017033338546753,2.7977070808410645,,,,,,
1764808624.988632,,,,,,,0.335654079914093,-0.09424998611211777,0.21426457166671753,-0.9553689956665039,-0.2612222731113434,-3.369004011154175
